imu_seq,secs,nsecs,timestamp,imu_frame_id,imu_orientation_x,imu_orientation_y,imu_orientation_z,imu_orientation_w,imu_orientation_cov_0,imu_orientation_cov_1,imu_orientation_cov_2,imu_orientation_cov_3,imu_orientation_cov_4,imu_orientation_cov_5,imu_orientation_cov_6,imu_orientation_cov_7,imu_orientation_cov_8,imu_angular_vel_x,imu_angular_vel_y,imu_angular_vel_z,imu_angular_vel_cov_0,imu_angular_vel_cov_1,imu_angular_vel_cov_2,imu_angular_vel_cov_3,imu_angular_vel_cov_4,imu_angular_vel_cov_5,imu_angular_vel_cov_6,imu_angular_vel_cov_7,imu_angular_vel_cov_8,imu_linear_acc_x,imu_linear_acc_y,imu_linear_acc_z,imu_linear_acc_cov_0,imu_linear_acc_cov_1,imu_linear_acc_cov_2,imu_linear_acc_cov_3,imu_linear_acc_cov_4,imu_linear_acc_cov_5,imu_linear_acc_cov_6,imu_linear_acc_cov_7,imu_linear_acc_cov_8,map_position_x,map_position_y,map_position_z,map_orientation_x,map_orientation_y,map_orientation_z,map_orientation_w,odom_pose_x,odom_pose_y,odom_pose_z,odom_orientation_x,odom_orientation_y,odom_orientation_z,odom_orientation_w,odom_pose_cov_0,odom_pose_cov_1,odom_pose_cov_2,odom_pose_cov_3,odom_pose_cov_4,odom_pose_cov_5,odom_pose_cov_6,odom_pose_cov_7,odom_pose_cov_8,odom_pose_cov_9,odom_pose_cov_10,odom_pose_cov_11,odom_pose_cov_12,odom_pose_cov_13,odom_pose_cov_14,odom_pose_cov_15,odom_pose_cov_16,odom_pose_cov_17,odom_pose_cov_18,odom_pose_cov_19,odom_pose_cov_20,odom_pose_cov_21,odom_pose_cov_22,odom_pose_cov_23,odom_pose_cov_24,odom_pose_cov_25,odom_pose_cov_26,odom_pose_cov_27,odom_pose_cov_28,odom_pose_cov_29,odom_pose_cov_30,odom_pose_cov_31,odom_pose_cov_32,odom_pose_cov_33,odom_pose_cov_34,odom_pose_cov_35,odom_twist_linear_x,odom_twist_linear_y,odom_twist_linear_z,odom_twist_angular_x,odom_twist_angular_y,odom_twist_angular_z,odom_twist_cov_0,odom_twist_cov_1,odom_twist_cov_2,odom_twist_cov_3,odom_twist_cov_4,odom_twist_cov_5,odom_twist_cov_6,odom_twist_cov_7,odom_twist_cov_8,odom_twist_cov_9,odom_twist_cov_10,odom_twist_cov_11,odom_twist_cov_12,odom_twist_cov_13,odom_twist_cov_14,odom_twist_cov_15,odom_twist_cov_16,odom_twist_cov_17,odom_twist_cov_18,odom_twist_cov_19,odom_twist_cov_20,odom_twist_cov_21,odom_twist_cov_22,odom_twist_cov_23,odom_twist_cov_24,odom_twist_cov_25,odom_twist_cov_26,odom_twist_cov_27,odom_twist_cov_28,odom_twist_cov_29,odom_twist_cov_30,odom_twist_cov_31,odom_twist_cov_32,odom_twist_cov_33,odom_twist_cov_34,odom_twist_cov_35,cmd_vel_linear_x,cmd_vel_linear_y,cmd_vel_linear_z,cmd_vel_angular_x,cmd_vel_angular_y,cmd_vel_angular_z
12,164,900000000,164.9,base_footprint,-0.06760731705251771,0.029965042558618354,-0.09411488471250035,1.0716869601892334,0.0,0.0,0.0,0.0,0.0,0.0,0.0,0.0,0.0,-0.04983788390013351,-0.04683938751582897,0.018170825798479118,0.0,0.0,0.0,0.0,0.0,0.0,0.0,0.0,0.0,0.04546247837786342,0.005447424920284709,-0.12071170257803918,0.0,0.0,0.0,0.0,0.0,0.0,0.0,0.0,0.0,0.0,0.0,0.0,0.0,0.0,0.0,1.0,-2.0297670825174854,0.9673705203012044,0.27374326703472734,0.0002957874895454,0.0038422083539944,-0.0780386387238881,0.996942887436812,1e-05,0.0,0.0,0.0,0.0,0.0,0.0,1e-05,0.0,0.0,0.0,0.0,0.0,0.0,1000000000000.0,0.0,0.0,0.0,0.0,0.0,0.0,1000000000000.0,0.0,0.0,0.0,0.0,0.0,0.0,1000000000000.0,0.0,0.0,0.0,0.0,0.0,0.0,0.001,0.2067045304925019,1.3967282000808268e-05,0.0,0.0,0.0,-0.0202616333623993,0.0,0.0,0.0,0.0,0.0,0.0,0.0,0.0,0.0,0.0,0.0,0.0,0.0,0.0,0.0,0.0,0.0,0.0,0.0,0.0,0.0,0.0,0.0,0.0,0.0,0.0,0.0,0.0,0.0,0.0,0.0,0.0,0.0,0.0,0.0,0.0,0.3994505486271387,0.06790969038544886,0.015281074821606172,0.0,0.0,-0.0012382704298943
46,164,934000000,164.934,base_footprint,0.0016964897196591645,0.1336494216074496,-0.10862255697525514,1.0278871433002454,0.0,0.0,0.0,0.0,0.0,0.0,0.0,0.0,0.0,0.006434677366048773,0.013264381069676461,0.017601754749429023,0.0,0.0,0.0,0.0,0.0,0.0,0.0,0.0,0.0,0.1961932165608729,0.07018609304652682,-0.0786743281967347,0.0,0.0,0.0,0.0,0.0,0.0,0.0,0.0,0.0,0.0,0.0,0.0,0.0,0.0,0.0,1.0,-2.3147017252667634,0.9477029328578838,-0.05094246670354141,0.0002911924108434,0.0038464529153412,-0.0772673528985922,0.9970029469279388,1e-05,0.0,0.0,0.0,0.0,0.0,0.0,1e-05,0.0,0.0,0.0,0.0,0.0,0.0,1000000000000.0,0.0,0.0,0.0,0.0,0.0,0.0,1000000000000.0,0.0,0.0,0.0,0.0,0.0,0.0,1000000000000.0,0.0,0.0,0.0,0.0,0.0,0.0,0.001,0.2057930074616611,-2.283582162928427e-05,0.0,0.0,0.0,0.0593522111108802,0.0,0.0,0.0,0.0,0.0,0.0,0.0,0.0,0.0,0.0,0.0,0.0,0.0,0.0,0.0,0.0,0.0,0.0,0.0,0.0,0.0,0.0,0.0,0.0,0.0,0.0,0.0,0.0,0.0,0.0,0.0,0.0,0.0,0.0,0.0,0.0,0.3470238556201529,-0.039072409714896277,0.03384639229031312,0.0,0.0,-0.0012382704298943
79,164,967000000,164.967,base_footprint,-0.14649743463265627,0.06556694592336153,-0.1663777058735103,0.9410800708712119,0.0,0.0,0.0,0.0,0.0,0.0,0.0,0.0,0.0,-0.051516691826420775,0.013165681721185122,0.06318147204912218,0.0,0.0,0.0,0.0,0.0,0.0,0.0,0.0,0.0,0.09377993184273838,0.22489497550976323,0.03531065735216698,0.0,0.0,0.0,0.0,0.0,0.0,0.0,0.0,0.0,0.0,0.0,0.0,0.0,0.0,0.0,1.0,-2.529918061907457,0.7535717630807441,0.06232018522500973,0.0002894501345105,0.0038468952457981,-0.0763170690166192,0.9970761368081678,1e-05,0.0,0.0,0.0,0.0,0.0,0.0,1e-05,0.0,0.0,0.0,0.0,0.0,0.0,1000000000000.0,0.0,0.0,0.0,0.0,0.0,0.0,1000000000000.0,0.0,0.0,0.0,0.0,0.0,0.0,1000000000000.0,0.0,0.0,0.0,0.0,0.0,0.0,0.001,0.2055229050532337,2.6869949733519805e-06,0.0,0.0,0.0,0.0561976202910212,0.0,0.0,0.0,0.0,0.0,0.0,0.0,0.0,0.0,0.0,0.0,0.0,0.0,0.0,0.0,0.0,0.0,0.0,0.0,0.0,0.0,0.0,0.0,0.0,0.0,0.0,0.0,0.0,0.0,0.0,0.0,0.0,0.0,0.0,0.0,0.0,0.30998557345608724,-0.04974883324541142,-0.14273132666815827,0.0,0.0,-0.0012382704298943
112,165,0,165.0,base_footprint,-0.06760054129365227,-0.025463686108458967,-0.1370336088216962,0.980787411503507,0.0,0.0,0.0,0.0,0.0,0.0,0.0,0.0,0.0,-0.04254480676764463,-0.005815197448752592,0.10879463552697094,0.0,0.0,0.0,0.0,0.0,0.0,0.0,0.0,0.0,-0.46496448181616395,0.19133944075186254,-0.1942155349764282,0.0,0.0,0.0,0.0,0.0,0.0,0.0,0.0,0.0,0.0,0.0,0.0,0.0,0.0,0.0,1.0,-1.907121831370779,1.038045649476145,0.22324656408134969,0.0002815415279784,0.0038407740409852,-0.0755809203884532,0.9971322347925418,1e-05,0.0,0.0,0.0,0.0,0.0,0.0,1e-05,0.0,0.0,0.0,0.0,0.0,0.0,1000000000000.0,0.0,0.0,0.0,0.0,0.0,0.0,1000000000000.0,0.0,0.0,0.0,0.0,0.0,0.0,1000000000000.0,0.0,0.0,0.0,0.0,0.0,0.0,0.001,0.2039831277002504,1.4198246962027206e-06,0.0,0.0,0.0,0.0342544877686569,0.0,0.0,0.0,0.0,0.0,0.0,0.0,0.0,0.0,0.0,0.0,0.0,0.0,0.0,0.0,0.0,0.0,0.0,0.0,0.0,0.0,0.0,0.0,0.0,0.0,0.0,0.0,0.0,0.0,0.0,0.0,0.0,0.0,0.0,0.0,0.0,0.3164118222756348,0.07486942930599885,-0.22745180264558562,0.0,0.0,-0.0012382704298943
146,165,34000000,165.034,base_footprint,-0.10151945687930804,0.042618920971996786,0.00559897997956485,1.0839945046702602,0.0,0.0,0.0,0.0,0.0,0.0,0.0,0.0,0.0,-0.015354721590914224,-0.0011483578197522618,-0.09073051394558532,0.0,0.0,0.0,0.0,0.0,0.0,0.0,0.0,0.0,0.1644859589528242,-0.13641705611090743,-0.08343431873422484,0.0,0.0,0.0,0.0,0.0,0.0,0.0,0.0,0.0,0.0,0.0,0.0,0.0,0.0,0.0,1.0,-2.3985045895858343,1.1763478909469514,-0.03623990323498897,0.0002847159648527,0.0038398670542179,-0.0765563911195148,0.9970578184521603,1e-05,0.0,0.0,0.0,0.0,0.0,0.0,1e-05,0.0,0.0,0.0,0.0,0.0,0.0,1000000000000.0,0.0,0.0,0.0,0.0,0.0,0.0,1000000000000.0,0.0,0.0,0.0,0.0,0.0,0.0,1000000000000.0,0.0,0.0,0.0,0.0,0.0,0.0,0.001,0.2134274638892576,4.7860250892102496e-05,0.0,0.0,0.0,-0.092489890418516,0.0,0.0,0.0,0.0,0.0,0.0,0.0,0.0,0.0,0.0,0.0,0.0,0.0,0.0,0.0,0.0,0.0,0.0,0.0,0.0,0.0,0.0,0.0,0.0,0.0,0.0,0.0,0.0,0.0,0.0,0.0,0.0,0.0,0.0,0.0,0.0,0.45193994625932055,-0.23114669158447834,0.0690422114310754,0.0,0.0,0.0
179,165,67000000,165.067,base_footprint,0.11634882970452837,-0.018475581559747312,0.06441707206416616,0.9481140935322664,0.0,0.0,0.0,0.0,0.0,0.0,0.0,0.0,0.0,-0.02044335866898489,0.002253678127336384,-0.02958084015091124,0.0,0.0,0.0,0.0,0.0,0.0,0.0,0.0,0.0,-0.03544561591131937,-0.2127148566062103,-0.5183521925296639,0.0,0.0,0.0,0.0,0.0,0.0,0.0,0.0,0.0,0.0,0.0,0.0,0.0,0.0,0.0,1.0,-2.2927008581071915,1.059674642443693,-0.2917987316126554,0.0002891094686361,0.003838822469316,-0.0776648322249341,0.9969720927354172,1e-05,0.0,0.0,0.0,0.0,0.0,0.0,1e-05,0.0,0.0,0.0,0.0,0.0,0.0,1000000000000.0,0.0,0.0,0.0,0.0,0.0,0.0,1000000000000.0,0.0,0.0,0.0,0.0,0.0,0.0,1000000000000.0,0.0,0.0,0.0,0.0,0.0,0.0,0.001,0.2174403826859504,1.4988372269111871e-05,0.0,0.0,0.0,-0.0368213948897412,0.0,0.0,0.0,0.0,0.0,0.0,0.0,0.0,0.0,0.0,0.0,0.0,0.0,0.0,0.0,0.0,0.0,0.0,0.0,0.0,0.0,0.0,0.0,0.0,0.0,0.0,0.0,0.0,0.0,0.0,0.0,0.0,0.0,0.0,0.0,0.0,0.20092857296207597,0.1700010789032871,-0.024020126244133726,0.0,0.0,0.0
212,165,100000000,165.1,base_footprint,0.009667653986354602,0.012106418156992076,-0.1023473130972933,1.002663209072731,0.0,0.0,0.0,0.0,0.0,0.0,0.0,0.0,0.0,0.07319766612802772,0.11977974313784175,-0.06524979368498476,0.0,0.0,0.0,0.0,0.0,0.0,0.0,0.0,0.0,-0.05205975902525777,0.2661391971253971,-0.1995984050520501,0.0,0.0,0.0,0.0,0.0,0.0,0.0,0.0,0.0,0.0,0.0,0.0,0.0,0.0,0.0,1.0,-2.2635317928227012,1.1932884378927662,-0.04730052865804473,0.0002921545160459,0.0038419450973034,-0.0778125876363608,0.996960558552314,1e-05,0.0,0.0,0.0,0.0,0.0,0.0,1e-05,0.0,0.0,0.0,0.0,0.0,0.0,1000000000000.0,0.0,0.0,0.0,0.0,0.0,0.0,1000000000000.0,0.0,0.0,0.0,0.0,0.0,0.0,1000000000000.0,0.0,0.0,0.0,0.0,0.0,0.0,0.001,0.2199653037621846,1.1224115648855726e-06,0.0,0.0,0.0,-0.0019447104979747,0.0,0.0,0.0,0.0,0.0,0.0,0.0,0.0,0.0,0.0,0.0,0.0,0.0,0.0,0.0,0.0,0.0,0.0,0.0,0.0,0.0,0.0,0.0,0.0,0.0,0.0,0.0,0.0,0.0,0.0,0.0,0.0,0.0,0.0,0.0,0.0,0.18146084990177536,0.03157110511921337,0.11435301763832072,0.0,0.0,0.0
246,165,134000000,165.134,base_footprint,-0.00031745302438551274,-0.11824173360145793,-0.11254951362811046,0.9504040866278537,0.0,0.0,0.0,0.0,0.0,0.0,0.0,0.0,0.0,0.051331087452666554,0.013102694541160783,0.04497478788697541,0.0,0.0,0.0,0.0,0.0,0.0,0.0,0.0,0.0,0.13468999759377545,-0.15480660356568432,0.16888745181020015,0.0,0.0,0.0,0.0,0.0,0.0,0.0,0.0,0.0,0.0,0.0,0.0,0.0,0.0,0.0,1.0,-2.507438047644474,0.8491127339955682,0.04577677273742861,0.0002920929887283,0.0038421371936971,-0.0778237015043677,0.9969596903323776,1e-05,0.0,0.0,0.0,0.0,0.0,0.0,1e-05,0.0,0.0,0.0,0.0,0.0,0.0,1000000000000.0,0.0,0.0,0.0,0.0,0.0,0.0,1000000000000.0,0.0,0.0,0.0,0.0,0.0,0.0,1000000000000.0,0.0,0.0,0.0,0.0,0.0,0.0,0.001,0.2199997850192883,2.908364806694652e-07,0.0,0.0,0.0,-0.0008122042245083,0.0,0.0,0.0,0.0,0.0,0.0,0.0,0.0,0.0,0.0,0.0,0.0,0.0,0.0,0.0,0.0,0.0,0.0,0.0,0.0,0.0,0.0,0.0,0.0,0.0,0.0,0.0,0.0,0.0,0.0,0.0,0.0,0.0,0.0,0.0,0.0,0.2491649708510499,0.049725940855960084,-0.028752036532114573,0.0,0.0,0.0237039849162101
279,165,167000000,165.167,base_footprint,-0.14436905246058354,-0.02189121251744188,0.011977539314054722,1.0196628215491763,0.0,0.0,0.0,0.0,0.0,0.0,0.0,0.0,0.0,-0.0018030317630849705,0.020770012236444882,0.02021091277071421,0.0,0.0,0.0,0.0,0.0,0.0,0.0,0.0,0.0,-0.05513079627636212,-0.004872207942133196,0.06574753511179586,0.0,0.0,0.0,0.0,0.0,0.0,0.0,0.0,0.0,0.0,0.0,0.0,0.0,0.0,0.0,1.0,-2.293686057971472,0.534716405656628,-0.4082217682976197,0.0002919164019201,0.0038423885177031,-0.0778357699844623,0.9969587472640076,1e-05,0.0,0.0,0.0,0.0,0.0,0.0,1e-05,0.0,0.0,0.0,0.0,0.0,0.0,1000000000000.0,0.0,0.0,0.0,0.0,0.0,0.0,1000000000000.0,0.0,0.0,0.0,0.0,0.0,0.0,1000000000000.0,0.0,0.0,0.0,0.0,0.0,0.0,0.001,0.2200445334157687,-2.041957166479258e-07,0.0,0.0,0.0,-0.0009113999574347,0.0,0.0,0.0,0.0,0.0,0.0,0.0,0.0,0.0,0.0,0.0,0.0,0.0,0.0,0.0,0.0,0.0,0.0,0.0,0.0,0.0,0.0,0.0,0.0,0.0,0.0,0.0,0.0,0.0,0.0,0.0,0.0,0.0,0.0,0.0,0.0,0.14233534380899443,-0.014871212688401525,-0.06724895099318387,0.0,0.0,0.0237039849162101
312,165,200000000,165.2,base_footprint,-0.008033850367105449,0.007515827164693334,-0.10546471635082323,0.9373698883138634,0.0,0.0,0.0,0.0,0.0,0.0,0.0,0.0,0.0,0.07131420752371403,-0.0030973123908269408,0.04501121244207146,0.0,0.0,0.0,0.0,0.0,0.0,0.0,0.0,0.0,0.10760135967776052,-0.026635809305364005,-0.22087246497835988,0.0,0.0,0.0,0.0,0.0,0.0,0.0,0.0,0.0,0.0,0.0,0.0,0.0,0.0,0.0,1.0,-2.266705983131464,0.767396890090754,-0.0677658498094327,0.0002917072632213,0.0038428884014782,-0.0778492229927606,0.9969576949876208,1e-05,0.0,0.0,0.0,0.0,0.0,0.0,1e-05,0.0,0.0,0.0,0.0,0.0,0.0,1000000000000.0,0.0,0.0,0.0,0.0,0.0,0.0,1000000000000.0,0.0,0.0,0.0,0.0,0.0,0.0,1000000000000.0,0.0,0.0,0.0,0.0,0.0,0.0,0.001,0.2200878840411781,-8.344592858922084e-07,0.0,0.0,0.0,-0.0009725109900436,0.0,0.0,0.0,0.0,0.0,0.0,0.0,0.0,0.0,0.0,0.0,0.0,0.0,0.0,0.0,0.0,0.0,0.0,0.0,0.0,0.0,0.0,0.0,0.0,0.0,0.0,0.0,0.0,0.0,0.0,0.0,0.0,0.0,0.0,0.0,0.0,0.24927606521290696,0.13098542300956628,-0.02511373196165122,0.0,0.0,0.0237039849162101
346,165,234000000,165.234,base_footprint,0.03585798248845162,0.031658437369466844,-0.07115033604033225,1.0670929771301214,0.0,0.0,0.0,0.0,0.0,0.0,0.0,0.0,0.0,0.02532083980972345,-0.06648998829456944,0.08398957331946208,0.0,0.0,0.0,0.0,0.0,0.0,0.0,0.0,0.0,0.0064776082551550995,0.14569103386273774,0.3738281740345163,0.0,0.0,0.0,0.0,0.0,0.0,0.0,0.0,0.0,0.0,0.0,0.0,0.0,0.0,0.0,1.0,-2.297647300471672,0.7940293008998757,0.16489891070438636,0.0002899486062191,0.003843688953656,-0.0774687134184402,0.9969873321293132,1e-05,0.0,0.0,0.0,0.0,0.0,0.0,1e-05,0.0,0.0,0.0,0.0,0.0,0.0,1000000000000.0,0.0,0.0,0.0,0.0,0.0,0.0,1000000000000.0,0.0,0.0,0.0,0.0,0.0,0.0,1000000000000.0,0.0,0.0,0.0,0.0,0.0,0.0,0.001,0.2199181156762377,-1.3520576480074986e-05,0.0,0.0,0.0,0.0226676927927721,0.0,0.0,0.0,0.0,0.0,0.0,0.0,0.0,0.0,0.0,0.0,0.0,0.0,0.0,0.0,0.0,0.0,0.0,0.0,0.0,0.0,0.0,0.0,0.0,0.0,0.0,0.0,0.0,0.0,0.0,0.0,0.0,0.0,0.0,0.0,0.0,0.16100936182544226,-0.15572915144962227,0.03751718098797694,0.0,0.0,0.0308016519993543
379,165,267000000,165.267,base_footprint,0.03392421778873248,0.031026132482484543,-0.04822028063520549,1.0445124406378425,0.0,0.0,0.0,0.0,0.0,0.0,0.0,0.0,0.0,0.025910480207714453,-0.20410178312492547,-0.046173920774468885,0.0,0.0,0.0,0.0,0.0,0.0,0.0,0.0,0.0,0.3487713034998155,-0.1162233300780548,-0.12399609024393542,0.0,0.0,0.0,0.0,0.0,0.0,0.0,0.0,0.0,0.0,0.0,0.0,0.0,0.0,0.0,1.0,-2.1484967181912737,0.8155083211957765,0.24230838627776927,0.0002884188929537,0.0038443144525255,-0.0770945087674606,0.9970163362647758,1e-05,0.0,0.0,0.0,0.0,0.0,0.0,1e-05,0.0,0.0,0.0,0.0,0.0,0.0,1000000000000.0,0.0,0.0,0.0,0.0,0.0,0.0,1000000000000.0,0.0,0.0,0.0,0.0,0.0,0.0,1000000000000.0,0.0,0.0,0.0,0.0,0.0,0.0,0.001,0.219954061122781,-1.7623238427959265e-05,0.0,0.0,0.0,0.0225965170201262,0.0,0.0,0.0,0.0,0.0,0.0,0.0,0.0,0.0,0.0,0.0,0.0,0.0,0.0,0.0,0.0,0.0,0.0,0.0,0.0,0.0,0.0,0.0,0.0,0.0,0.0,0.0,0.0,0.0,0.0,0.0,0.0,0.0,0.0,0.0,0.0,0.26491194096700565,0.02488422072090261,-0.05368694063461926,0.0,0.0,0.0308016519993543
412,165,300000000,165.3,base_footprint,0.08106372610857351,-0.04775401433969104,-0.015277160091485498,1.0091708834729187,0.0,0.0,0.0,0.0,0.0,0.0,0.0,0.0,0.0,0.07206818232266995,-0.01648496992212153,-0.051807467344247016,0.0,0.0,0.0,0.0,0.0,0.0,0.0,0.0,0.0,0.18837308582860526,0.03187755869544895,0.018854217953526285,0.0,0.0,0.0,0.0,0.0,0.0,0.0,0.0,0.0,0.0,0.0,0.0,0.0,0.0,0.0,1.0,-2.5014854276885945,0.8231464769193239,0.1075530320425409,0.0002872796798099,0.0038450372468838,-0.0767229047474186,0.9970449985061226,1e-05,0.0,0.0,0.0,0.0,0.0,0.0,1e-05,0.0,0.0,0.0,0.0,0.0,0.0,1000000000000.0,0.0,0.0,0.0,0.0,0.0,0.0,1000000000000.0,0.0,0.0,0.0,0.0,0.0,0.0,1000000000000.0,0.0,0.0,0.0,0.0,0.0,0.0,0.001,0.2199741564553274,2.589054556675907e-06,0.0,0.0,0.0,0.022670579588663,0.0,0.0,0.0,0.0,0.0,0.0,0.0,0.0,0.0,0.0,0.0,0.0,0.0,0.0,0.0,0.0,0.0,0.0,0.0,0.0,0.0,0.0,0.0,0.0,0.0,0.0,0.0,0.0,0.0,0.0,0.0,0.0,0.0,0.0,0.0,0.0,0.19154824324806466,0.01965606346481596,-0.03706833858014314,0.0,0.0,0.0308016519993543
446,165,334000000,165.334,base_footprint,0.01082820266891879,-0.003942813580523154,-0.04861178585201549,1.0365135737479347,0.0,0.0,0.0,0.0,0.0,0.0,0.0,0.0,0.0,0.04169411722589623,-0.0074581633846263875,0.034141444033139075,0.0,0.0,0.0,0.0,0.0,0.0,0.0,0.0,0.0,-0.20901989245233762,-0.11115610125978828,-0.04898146352461804,0.0,0.0,0.0,0.0,0.0,0.0,0.0,0.0,0.0,0.0,0.0,0.0,0.0,0.0,0.0,1.0,-2.0454961188513936,1.2068258614925107,0.11753401045732476,0.0002852846965628,0.0038468574877095,-0.0762044924310152,0.9970847484709824,1e-05,0.0,0.0,0.0,0.0,0.0,0.0,1e-05,0.0,0.0,0.0,0.0,0.0,0.0,1000000000000.0,0.0,0.0,0.0,0.0,0.0,0.0,1000000000000.0,0.0,0.0,0.0,0.0,0.0,0.0,1000000000000.0,0.0,0.0,0.0,0.0,0.0,0.0,0.001,0.2197177014555809,3.413453027886759e-06,0.0,0.0,0.0,0.0321520585998258,0.0,0.0,0.0,0.0,0.0,0.0,0.0,0.0,0.0,0.0,0.0,0.0,0.0,0.0,0.0,0.0,0.0,0.0,0.0,0.0,0.0,0.0,0.0,0.0,0.0,0.0,0.0,0.0,0.0,0.0,0.0,0.0,0.0,0.0,0.0,0.0,0.14405469807329274,0.10591755276037884,-0.09130159026857393,0.0,0.0,-0.0572742968797683
479,165,367000000,165.367,base_footprint,0.03573369687418753,-0.05173653198404696,-0.09940003661503313,1.009780054189882,0.0,0.0,0.0,0.0,0.0,0.0,0.0,0.0,0.0,1.9227577568394557e-05,-0.042406945472577354,0.10170307309618667,0.0,0.0,0.0,0.0,0.0,0.0,0.0,0.0,0.0,0.04888582899406417,0.21229453153449687,0.28800695919350977,0.0,0.0,0.0,0.0,0.0,0.0,0.0,0.0,0.0,0.0,0.0,0.0,0.0,0.0,0.0,1.0,-2.6954946467669156,0.8120752748483646,-0.07741173298445415,0.0002857869575777,0.0038442931345381,-0.0756331759646842,0.9971282577630652,1e-05,0.0,0.0,0.0,0.0,0.0,0.0,1e-05,0.0,0.0,0.0,0.0,0.0,0.0,1000000000000.0,0.0,0.0,0.0,0.0,0.0,0.0,1000000000000.0,0.0,0.0,0.0,0.0,0.0,0.0,1000000000000.0,0.0,0.0,0.0,0.0,0.0,0.0,0.001,0.2196241120779342,-8.322669028129615e-06,0.0,0.0,0.0,0.0329821110894704,0.0,0.0,0.0,0.0,0.0,0.0,0.0,0.0,0.0,0.0,0.0,0.0,0.0,0.0,0.0,0.0,0.0,0.0,0.0,0.0,0.0,0.0,0.0,0.0,0.0,0.0,0.0,0.0,0.0,0.0,0.0,0.0,0.0,0.0,0.0,0.0,0.17531747986195165,-0.058435077226214154,-0.07448579956763672,0.0,0.0,-0.0572742968797683
512,165,400000000,165.4,base_footprint,0.05165837077095977,-0.045154615895955076,-0.11120842895001698,0.8590623718433881,0.0,0.0,0.0,0.0,0.0,0.0,0.0,0.0,0.0,0.12715781494147863,0.0765900735846679,-0.010926100438579257,0.0,0.0,0.0,0.0,0.0,0.0,0.0,0.0,0.0,-0.025442523915609448,-0.15176091683568907,-0.03949650006242086,0.0,0.0,0.0,0.0,0.0,0.0,0.0,0.0,0.0,0.0,0.0,0.0,0.0,0.0,0.0,1.0,-1.9323336552233683,0.8482555179486838,0.07868073999848783,0.0002834478982906,0.0038462622244144,-0.0751177037842013,0.997167215918363,1e-05,0.0,0.0,0.0,0.0,0.0,0.0,1e-05,0.0,0.0,0.0,0.0,0.0,0.0,1000000000000.0,0.0,0.0,0.0,0.0,0.0,0.0,1000000000000.0,0.0,0.0,0.0,0.0,0.0,0.0,1000000000000.0,0.0,0.0,0.0,0.0,0.0,0.0,0.001,0.2196787994634132,-1.2527822402318143e-05,0.0,0.0,0.0,0.0318850693045629,0.0,0.0,0.0,0.0,0.0,0.0,0.0,0.0,0.0,0.0,0.0,0.0,0.0,0.0,0.0,0.0,0.0,0.0,0.0,0.0,0.0,0.0,0.0,0.0,0.0,0.0,0.0,0.0,0.0,0.0,0.0,0.0,0.0,0.0,0.0,0.0,0.1650254972475347,-0.0024392505004658827,-0.010115144298189048,0.0,0.0,-0.0572742968797683
546,165,434000000,165.434,base_footprint,-0.11966890886339993,0.012512091404509217,-0.17079665745712722,1.0312286917584088,0.0,0.0,0.0,0.0,0.0,0.0,0.0,0.0,0.0,0.08906877250695079,-0.12456702262859115,-0.09238489830628875,0.0,0.0,0.0,0.0,0.0,0.0,0.0,0.0,0.0,0.14509724642360694,0.22058047383985158,-0.19117731775722185,0.0,0.0,0.0,0.0,0.0,0.0,0.0,0.0,0.0,0.0,0.0,0.0,0.0,0.0,0.0,1.0,-2.383139235561976,0.974929494809205,-0.08587520567846996,0.0002872760726541,0.00384658374981,-0.07581620277965,0.997114348839685,1e-05,0.0,0.0,0.0,0.0,0.0,0.0,1e-05,0.0,0.0,0.0,0.0,0.0,0.0,1000000000000.0,0.0,0.0,0.0,0.0,0.0,0.0,1000000000000.0,0.0,0.0,0.0,0.0,0.0,0.0,1000000000000.0,0.0,0.0,0.0,0.0,0.0,0.0,0.001,0.2202949436501241,4.008831801421281e-05,0.0,0.0,0.0,-0.0578708395897075,0.0,0.0,0.0,0.0,0.0,0.0,0.0,0.0,0.0,0.0,0.0,0.0,0.0,0.0,0.0,0.0,0.0,0.0,0.0,0.0,0.0,0.0,0.0,0.0,0.0,0.0,0.0,0.0,0.0,0.0,0.0,0.0,0.0,0.0,0.0,0.0,0.28699258773560254,0.004778723070305639,0.07802047497239496,0.0,0.0,-0.0544522255659103
579,165,467000000,165.467,base_footprint,-0.1052167498854732,0.031431092167967,-0.22744235466728502,1.0542114638169544,0.0,0.0,0.0,0.0,0.0,0.0,0.0,0.0,0.0,0.03351439744189343,0.03869113013669771,-0.12551354980359114,0.0,0.0,0.0,0.0,0.0,0.0,0.0,0.0,0.0,0.0955609306182774,0.028510479962501285,0.29746628996781627,0.0,0.0,0.0,0.0,0.0,0.0,0.0,0.0,0.0,0.0,0.0,0.0,0.0,0.0,0.0,1.0,-2.175650913687654,0.9544463699812857,0.1709597724172506,0.0002872782782367,0.0038419315305874,-0.0769258764797572,0.997029370962123,1e-05,0.0,0.0,0.0,0.0,0.0,0.0,1e-05,0.0,0.0,0.0,0.0,0.0,0.0,1000000000000.0,0.0,0.0,0.0,0.0,0.0,0.0,1000000000000.0,0.0,0.0,0.0,0.0,0.0,0.0,1000000000000.0,0.0,0.0,0.0,0.0,0.0,0.0,0.001,0.2188267266440229,2.844967691532224e-05,0.0,0.0,0.0,-0.0790676135880214,0.0,0.0,0.0,0.0,0.0,0.0,0.0,0.0,0.0,0.0,0.0,0.0,0.0,0.0,0.0,0.0,0.0,0.0,0.0,0.0,0.0,0.0,0.0,0.0,0.0,0.0,0.0,0.0,0.0,0.0,0.0,0.0,0.0,0.0,0.0,0.0,0.11646955952797894,0.10220862937965519,0.0564205582414794,0.0,0.0,-0.0544522255659103
612,165,500000000,165.5,base_footprint,0.08062508387418135,0.08574958457859137,-0.10482879956811822,1.0866851337626755,0.0,0.0,0.0,0.0,0.0,0.0,0.0,0.0,0.0,0.11887885819480504,-0.04166499231812276,-0.017224165839627034,0.0,0.0,0.0,0.0,0.0,0.0,0.0,0.0,0.0,-0.21297337754402548,0.08748625708653054,-0.13199962205438756,0.0,0.0,0.0,0.0,0.0,0.0,0.0,0.0,0.0,0.0,0.0,0.0,0.0,0.0,0.0,1.0,-2.255536423855422,1.052557502772384,0.13868086535173169,0.0002910984884912,0.0038393319054836,-0.0782086921819498,0.9969295738713836,1e-05,0.0,0.0,0.0,0.0,0.0,0.0,1e-05,0.0,0.0,0.0,0.0,0.0,0.0,1000000000000.0,0.0,0.0,0.0,0.0,0.0,0.0,1000000000000.0,0.0,0.0,0.0,0.0,0.0,0.0,1000000000000.0,0.0,0.0,0.0,0.0,0.0,0.0,0.001,0.2195479859307851,2.634104521406777e-05,0.0,0.0,0.0,-0.0695101718998346,0.0,0.0,0.0,0.0,0.0,0.0,0.0,0.0,0.0,0.0,0.0,0.0,0.0,0.0,0.0,0.0,0.0,0.0,0.0,0.0,0.0,0.0,0.0,0.0,0.0,0.0,0.0,0.0,0.0,0.0,0.0,0.0,0.0,0.0,0.0,0.0,0.28991953777056695,0.03960237750599709,0.11072984941601725,0.0,0.0,-0.0544522255659103
646,165,534000000,165.534,base_footprint,-0.02539398431842538,0.03170686117896931,-0.06908817539362959,1.0144021387897806,0.0,0.0,0.0,0.0,0.0,0.0,0.0,0.0,0.0,-0.08064840673420083,0.017964807626000348,0.04232766575559187,0.0,0.0,0.0,0.0,0.0,0.0,0.0,0.0,0.0,-0.1525651417406961,0.3885660435164263,0.03584262692438209,0.0,0.0,0.0,0.0,0.0,0.0,0.0,0.0,0.0,0.0,0.0,0.0,0.0,0.0,0.0,1.0,-2.454458688464183,0.8958480866725879,0.029522188801855313,0.0002972355546858,0.0038449840314759,-0.0782327665658708,0.9969276613597764,1e-05,0.0,0.0,0.0,0.0,0.0,0.0,1e-05,0.0,0.0,0.0,0.0,0.0,0.0,1000000000000.0,0.0,0.0,0.0,0.0,0.0,0.0,1000000000000.0,0.0,0.0,0.0,0.0,0.0,0.0,1000000000000.0,0.0,0.0,0.0,0.0,0.0,0.0,0.001,0.1979811979569564,-1.0456301117900413e-05,0.0,0.0,0.0,0.0141024530075009,0.0,0.0,0.0,0.0,0.0,0.0,0.0,0.0,0.0,0.0,0.0,0.0,0.0,0.0,0.0,0.0,0.0,0.0,0.0,0.0,0.0,0.0,0.0,0.0,0.0,0.0,0.0,0.0,0.0,0.0,0.0,0.0,0.0,0.0,0.0,0.0,0.2613750471553423,0.015988831703275818,-0.06713090336768927,0.0,0.0,-0.0472342260181903
679,165,567000000,165.567,base_footprint,0.041896121506549915,0.030055145139141943,-0.10332180668927513,0.9769806723252086,0.0,0.0,0.0,0.0,0.0,0.0,0.0,0.0,0.0,0.052794405879483725,-0.016898316320969005,-0.02350072726528045,0.0,0.0,0.0,0.0,0.0,0.0,0.0,0.0,0.0,-0.1745431599687147,0.05341204985633003,0.010744099236258728,0.0,0.0,0.0,0.0,0.0,0.0,0.0,0.0,0.0,0.0,0.0,0.0,0.0,0.0,0.0,1.0,-2.4322783531226375,0.9441059438680862,-0.0958140900427533,0.0002969818648148,0.0038414582333432,-0.0789283412287742,0.9968728464309216,1e-05,0.0,0.0,0.0,0.0,0.0,0.0,1e-05,0.0,0.0,0.0,0.0,0.0,0.0,1000000000000.0,0.0,0.0,0.0,0.0,0.0,0.0,1000000000000.0,0.0,0.0,0.0,0.0,0.0,0.0,1000000000000.0,0.0,0.0,0.0,0.0,0.0,0.0,0.001,0.2072118448573292,2.214110586400836e-05,0.0,0.0,0.0,-0.0554393523552857,0.0,0.0,0.0,0.0,0.0,0.0,0.0,0.0,0.0,0.0,0.0,0.0,0.0,0.0,0.0,0.0,0.0,0.0,0.0,0.0,0.0,0.0,0.0,0.0,0.0,0.0,0.0,0.0,0.0,0.0,0.0,0.0,0.0,0.0,0.0,0.0,0.3097969932287391,-0.06194302648058101,0.15003698275392285,0.0,0.0,-0.0472342260181903
712,165,600000000,165.6,base_footprint,-0.027185455423026125,-0.010263091070989359,-0.1473238524151736,0.9053618732570407,0.0,0.0,0.0,0.0,0.0,0.0,0.0,0.0,0.0,0.01850252243016987,0.03706301360255076,-0.005668626343014051,0.0,0.0,0.0,0.0,0.0,0.0,0.0,0.0,0.0,0.16561021582148222,-0.19380601496372263,0.060582351372041834,0.0,0.0,0.0,0.0,0.0,0.0,0.0,0.0,0.0,0.0,0.0,0.0,0.0,0.0,0.0,1.0,-2.2703900520215456,1.132234580582366,-0.010183725373219049,0.0003003940203465,0.0038415761591214,-0.0798332182910465,0.9968007871753214,1e-05,0.0,0.0,0.0,0.0,0.0,0.0,1e-05,0.0,0.0,0.0,0.0,0.0,0.0,1000000000000.0,0.0,0.0,0.0,0.0,0.0,0.0,1000000000000.0,0.0,0.0,0.0,0.0,0.0,0.0,1000000000000.0,0.0,0.0,0.0,0.0,0.0,0.0,0.001,0.2072584915931868,2.0932089988309754e-05,0.0,0.0,0.0,-0.0551892671050473,0.0,0.0,0.0,0.0,0.0,0.0,0.0,0.0,0.0,0.0,0.0,0.0,0.0,0.0,0.0,0.0,0.0,0.0,0.0,0.0,0.0,0.0,0.0,0.0,0.0,0.0,0.0,0.0,0.0,0.0,0.0,0.0,0.0,0.0,0.0,0.0,0.2279808090340825,0.09379950258056853,-0.05854044758947994,0.0,0.0,-0.0472342260181903
746,165,634000000,165.634,base_footprint,0.13570854620867562,0.04026945460441231,-0.006296960253652645,0.9999013631530677,0.0,0.0,0.0,0.0,0.0,0.0,0.0,0.0,0.0,-0.026506156163867048,0.03255634924398599,-0.03250794742944608,0.0,0.0,0.0,0.0,0.0,0.0,0.0,0.0,0.0,0.23013480920029855,0.09226101657267839,0.0849594642541036,0.0,0.0,0.0,0.0,0.0,0.0,0.0,0.0,0.0,0.0,0.0,0.0,0.0,0.0,0.0,1.0,-2.4085847058673964,0.9820795689819319,-0.21651984181356973,0.0003048431980378,0.0038424009899906,-0.0810082566981568,0.9967059773935252,1e-05,0.0,0.0,0.0,0.0,0.0,0.0,1e-05,0.0,0.0,0.0,0.0,0.0,0.0,1000000000000.0,0.0,0.0,0.0,0.0,0.0,0.0,1000000000000.0,0.0,0.0,0.0,0.0,0.0,0.0,1000000000000.0,0.0,0.0,0.0,0.0,0.0,0.0,0.001,0.2204920509578885,1.586348047920988e-05,0.0,0.0,0.0,-0.0476836982472343,0.0,0.0,0.0,0.0,0.0,0.0,0.0,0.0,0.0,0.0,0.0,0.0,0.0,0.0,0.0,0.0,0.0,0.0,0.0,0.0,0.0,0.0,0.0,0.0,0.0,0.0,0.0,0.0,0.0,0.0,0.0,0.0,0.0,0.0,0.0,0.0,0.20437125378859194,-0.01700311599940421,0.04651523947441685,0.0,0.0,-0.023629792034626
779,165,667000000,165.667,base_footprint,-0.03352116884929742,0.014379620095672674,-0.17636742704503255,0.8382993296699134,0.0,0.0,0.0,0.0,0.0,0.0,0.0,0.0,0.0,-0.0754432499140916,-0.025807033745617658,-0.029138107140644853,0.0,0.0,0.0,0.0,0.0,0.0,0.0,0.0,0.0,0.2647885875805845,-0.12433494418570484,0.5577400667928408,0.0,0.0,0.0,0.0,0.0,0.0,0.0,0.0,0.0,0.0,0.0,0.0,0.0,0.0,0.0,1.0,-2.464460856166136,0.7787552534179468,0.026757811574564493,0.0003074285263783,0.00384154640922,-0.0817986897780077,0.9966414211538112,1e-05,0.0,0.0,0.0,0.0,0.0,0.0,1e-05,0.0,0.0,0.0,0.0,0.0,0.0,1000000000000.0,0.0,0.0,0.0,0.0,0.0,0.0,1000000000000.0,0.0,0.0,0.0,0.0,0.0,0.0,1000000000000.0,0.0,0.0,0.0,0.0,0.0,0.0,0.001,0.2205004712259916,1.6213364917340434e-05,0.0,0.0,0.0,-0.0482451800910622,0.0,0.0,0.0,0.0,0.0,0.0,0.0,0.0,0.0,0.0,0.0,0.0,0.0,0.0,0.0,0.0,0.0,0.0,0.0,0.0,0.0,0.0,0.0,0.0,0.0,0.0,0.0,0.0,0.0,0.0,0.0,0.0,0.0,0.0,0.0,0.0,0.465199438097732,0.031979998950001594,-0.06699143442334463,0.0,0.0,-0.023629792034626
812,165,700000000,165.7,base_footprint,-0.0453365305453588,0.02864715798053611,-0.048153789555783574,0.9754670736581404,0.0,0.0,0.0,0.0,0.0,0.0,0.0,0.0,0.0,0.0505840840027337,-0.008783159660246325,-0.07957278504455761,0.0,0.0,0.0,0.0,0.0,0.0,0.0,0.0,0.0,-0.36457132883082766,-0.02137417800619021,0.2622171558130756,0.0,0.0,0.0,0.0,0.0,0.0,0.0,0.0,0.0,0.0,0.0,0.0,0.0,0.0,0.0,1.0,-2.575907998128424,0.9444583962044015,-0.33592855840282704,0.0003101929794906,0.0038419358464877,-0.0825907539478407,0.9965760937688576,1e-05,0.0,0.0,0.0,0.0,0.0,0.0,1e-05,0.0,0.0,0.0,0.0,0.0,0.0,1000000000000.0,0.0,0.0,0.0,0.0,0.0,0.0,1000000000000.0,0.0,0.0,0.0,0.0,0.0,0.0,1000000000000.0,0.0,0.0,0.0,0.0,0.0,0.0,0.001,0.2205430184804782,1.6180815867392062e-05,0.0,0.0,0.0,-0.0483401950394038,0.0,0.0,0.0,0.0,0.0,0.0,0.0,0.0,0.0,0.0,0.0,0.0,0.0,0.0,0.0,0.0,0.0,0.0,0.0,0.0,0.0,0.0,0.0,0.0,0.0,0.0,0.0,0.0,0.0,0.0,0.0,0.0,0.0,0.0,0.0,0.0,0.18003193519162025,0.056343383090656445,-0.10097949362462462,0.0,0.0,-0.023629792034626
846,165,734000000,165.734,base_footprint,0.006263844008879601,-0.1188492130620163,-0.07492095445240979,1.0765016506398761,0.0,0.0,0.0,0.0,0.0,0.0,0.0,0.0,0.0,0.03614860854258833,-0.007918052796365632,0.019012036362715572,0.0,0.0,0.0,0.0,0.0,0.0,0.0,0.0,0.0,0.03401827967879683,-0.09311894873710377,0.38434034719710763,0.0,0.0,0.0,0.0,0.0,0.0,0.0,0.0,0.0,0.0,0.0,0.0,0.0,0.0,0.0,1.0,-2.209375930058963,0.8103616475429933,0.18145858306617096,0.000311556524249,0.003842634059692,-0.083012644467713,0.996541036763912,1e-05,0.0,0.0,0.0,0.0,0.0,0.0,1e-05,0.0,0.0,0.0,0.0,0.0,0.0,1000000000000.0,0.0,0.0,0.0,0.0,0.0,0.0,1000000000000.0,0.0,0.0,0.0,0.0,0.0,0.0,1000000000000.0,0.0,0.0,0.0,0.0,0.0,0.0,0.001,0.2203380785651099,5.292622640901135e-06,0.0,0.0,0.0,-0.0244673057238751,0.0,0.0,0.0,0.0,0.0,0.0,0.0,0.0,0.0,0.0,0.0,0.0,0.0,0.0,0.0,0.0,0.0,0.0,0.0,0.0,0.0,0.0,0.0,0.0,0.0,0.0,0.0,0.0,0.0,0.0,0.0,0.0,0.0,0.0,0.0,0.0,0.11095867166366359,0.0367641906898976,0.02188793106561658,0.0,0.0,-0.0157056469470262
879,165,767000000,165.767,base_footprint,-0.008218050958349883,-0.10477832340196293,-0.06501589819059639,1.036221546190549,0.0,0.0,0.0,0.0,0.0,0.0,0.0,0.0,0.0,0.020792775225998275,-0.04736428298539785,0.025540128071543027,0.0,0.0,0.0,0.0,0.0,0.0,0.0,0.0,0.0,-0.10843412590453572,0.2419523321747084,-0.47388392994595807,0.0,0.0,0.0,0.0,0.0,0.0,0.0,0.0,0.0,0.0,0.0,0.0,0.0,0.0,0.0,1.0,-2.0171910039480583,1.0840882909263172,0.18808034870326532,0.0003129576631284,0.0038432579576237,-0.0834095412337239,0.9965078925211542,1e-05,0.0,0.0,0.0,0.0,0.0,0.0,1e-05,0.0,0.0,0.0,0.0,0.0,0.0,1000000000000.0,0.0,0.0,0.0,0.0,0.0,0.0,1000000000000.0,0.0,0.0,0.0,0.0,0.0,0.0,1000000000000.0,0.0,0.0,0.0,0.0,0.0,0.0,0.001,0.2203141331000545,4.5742179710442366e-06,0.0,0.0,0.0,-0.0239107788238967,0.0,0.0,0.0,0.0,0.0,0.0,0.0,0.0,0.0,0.0,0.0,0.0,0.0,0.0,0.0,0.0,0.0,0.0,0.0,0.0,0.0,0.0,0.0,0.0,0.0,0.0,0.0,0.0,0.0,0.0,0.0,0.0,0.0,0.0,0.0,0.0,0.24121479773258697,-0.07158646428096047,-0.008646087074104108,0.0,0.0,-0.0157056469470262
912,165,800000000,165.8,base_footprint,0.047380861960388064,-0.03342840145435006,-0.14930237216955827,1.0220761531067946,0.0,0.0,0.0,0.0,0.0,0.0,0.0,0.0,0.0,0.018128752770855957,-0.09849174366174725,-0.03603999462537029,0.0,0.0,0.0,0.0,0.0,0.0,0.0,0.0,0.0,0.06695186816878282,0.17974949395637388,0.1840475468471748,0.0,0.0,0.0,0.0,0.0,0.0,0.0,0.0,0.0,0.0,0.0,0.0,0.0,0.0,0.0,1.0,-2.0716363007688594,0.8047648478147648,0.05370457191848465,0.000314577205198,0.0038439876938429,-0.0837944934549412,0.996475593111252,1e-05,0.0,0.0,0.0,0.0,0.0,0.0,1e-05,0.0,0.0,0.0,0.0,0.0,0.0,1000000000000.0,0.0,0.0,0.0,0.0,0.0,0.0,1000000000000.0,0.0,0.0,0.0,0.0,0.0,0.0,1000000000000.0,0.0,0.0,0.0,0.0,0.0,0.0,0.001,0.2202264915362989,3.256221033504092e-05,0.0,0.0,0.0,-0.022662073129526,0.0,0.0,0.0,0.0,0.0,0.0,0.0,0.0,0.0,0.0,0.0,0.0,0.0,0.0,0.0,0.0,0.0,0.0,0.0,0.0,0.0,0.0,0.0,0.0,0.0,0.0,0.0,0.0,0.0,0.0,0.0,0.0,0.0,0.0,0.0,0.0,0.05598262182694125,0.02993994026496426,0.04472363816464256,0.0,0.0,-0.0157056469470262
946,165,834000000,165.834,base_footprint,0.02472821511932006,-0.010695162399314777,-0.08522910811379907,0.9462981079202744,0.0,0.0,0.0,0.0,0.0,0.0,0.0,0.0,0.0,-0.05211582480591066,0.04481359220059035,0.00266677832431236,0.0,0.0,0.0,0.0,0.0,0.0,0.0,0.0,0.0,0.23805110738601337,0.02848598573810043,0.26171458413818227,0.0,0.0,0.0,0.0,0.0,0.0,0.0,0.0,0.0,0.0,0.0,0.0,0.0,0.0,0.0,1.0,-2.2598966534419875,1.1234963885107938,0.15175378881539167,0.0003168612259503,0.0038432324729719,-0.0840506539410274,0.9964540213854364,1e-05,0.0,0.0,0.0,0.0,0.0,0.0,1e-05,0.0,0.0,0.0,0.0,0.0,0.0,1000000000000.0,0.0,0.0,0.0,0.0,0.0,0.0,1000000000000.0,0.0,0.0,0.0,0.0,0.0,0.0,1000000000000.0,0.0,0.0,0.0,0.0,0.0,0.0,0.001,0.2199170427535337,5.886890371141484e-06,0.0,0.0,0.0,-0.0118616909255241,0.0,0.0,0.0,0.0,0.0,0.0,0.0,0.0,0.0,0.0,0.0,0.0,0.0,0.0,0.0,0.0,0.0,0.0,0.0,0.0,0.0,0.0,0.0,0.0,0.0,0.0,0.0,0.0,0.0,0.0,0.0,0.0,0.0,0.0,0.0,0.0,0.31290603388598315,0.06450119284996567,-0.12060144234298992,0.0,0.0,-0.0216093640774488
979,165,867000000,165.867,base_footprint,-0.12405120497209846,0.02780963526402734,0.0034110931822046997,1.030409959237544,0.0,0.0,0.0,0.0,0.0,0.0,0.0,0.0,0.0,0.052753266500139465,-0.0036780957513969765,-0.061585856461562324,0.0,0.0,0.0,0.0,0.0,0.0,0.0,0.0,0.0,0.1547068357287837,-0.3199232895538418,0.08968828025278988,0.0,0.0,0.0,0.0,0.0,0.0,0.0,0.0,0.0,0.0,0.0,0.0,0.0,0.0,0.0,1.0,-2.2120814377379054,0.8876590685406346,-0.1974876130133655,0.0003183184701845,0.0038431843074088,-0.0842806971358451,0.9964345902757626,1e-05,0.0,0.0,0.0,0.0,0.0,0.0,1e-05,0.0,0.0,0.0,0.0,0.0,0.0,1000000000000.0,0.0,0.0,0.0,0.0,0.0,0.0,1000000000000.0,0.0,0.0,0.0,0.0,0.0,0.0,1000000000000.0,0.0,0.0,0.0,0.0,0.0,0.0,0.001,0.2200190231514742,1.6607986773192751e-06,0.0,0.0,0.0,-0.0134042466906258,0.0,0.0,0.0,0.0,0.0,0.0,0.0,0.0,0.0,0.0,0.0,0.0,0.0,0.0,0.0,0.0,0.0,0.0,0.0,0.0,0.0,0.0,0.0,0.0,0.0,0.0,0.0,0.0,0.0,0.0,0.0,0.0,0.0,0.0,0.0,0.0,0.2686450435264178,-0.1379909489563584,0.0963862395196155,0.0,0.0,-0.0216093640774488
1012,165,900000000,165.9,base_footprint,0.004919553977971704,-0.01826103093981385,-0.03853918024181856,1.0462394371420682,0.0,0.0,0.0,0.0,0.0,0.0,0.0,0.0,0.0,-0.08981752988305788,-0.020442238487842424,-0.0013706122263848278,0.0,0.0,0.0,0.0,0.0,0.0,0.0,0.0,0.0,-0.29183105875231424,0.045332830982568725,-0.19149818034856078,0.0,0.0,0.0,0.0,0.0,0.0,0.0,0.0,0.0,0.0,0.0,0.0,0.0,0.0,0.0,1.0,-2.1912620681082196,0.9117885796284165,-0.05153934020839403,0.0003200165932669,0.003843341687783,-0.0845141272169204,0.9964148175407735,1e-05,0.0,0.0,0.0,0.0,0.0,0.0,1e-05,0.0,0.0,0.0,0.0,0.0,0.0,1000000000000.0,0.0,0.0,0.0,0.0,0.0,0.0,1000000000000.0,0.0,0.0,0.0,0.0,0.0,0.0,1000000000000.0,0.0,0.0,0.0,0.0,0.0,0.0,0.001,0.2200139003074419,1.6177384213056367e-06,0.0,0.0,0.0,-0.0142374192199815,0.0,0.0,0.0,0.0,0.0,0.0,0.0,0.0,0.0,0.0,0.0,0.0,0.0,0.0,0.0,0.0,0.0,0.0,0.0,0.0,0.0,0.0,0.0,0.0,0.0,0.0,0.0,0.0,0.0,0.0,0.0,0.0,0.0,0.0,0.0,0.0,0.2676007954936001,-0.10510480409914094,-0.07886830415711289,0.0,0.0,-0.0216093640774488
1046,165,934000000,165.934,base_footprint,0.052773490176179084,0.05653516377527352,-0.08072110479050605,0.9696449275430746,0.0,0.0,0.0,0.0,0.0,0.0,0.0,0.0,0.0,-0.06985385889089467,-0.09252287527508105,-0.033813131792341536,0.0,0.0,0.0,0.0,0.0,0.0,0.0,0.0,0.0,0.019854637049227818,0.154312453432761,-0.009520568653372585,0.0,0.0,0.0,0.0,0.0,0.0,0.0,0.0,0.0,0.0,0.0,0.0,0.0,0.0,0.0,1.0,-1.93179827928112,0.9928637785388965,-0.03290016861038284,0.0003224987723568,0.0038441697240883,-0.084907546824796,0.9963813661675278,1e-05,0.0,0.0,0.0,0.0,0.0,0.0,1e-05,0.0,0.0,0.0,0.0,0.0,0.0,1000000000000.0,0.0,0.0,0.0,0.0,0.0,0.0,1000000000000.0,0.0,0.0,0.0,0.0,0.0,0.0,1000000000000.0,0.0,0.0,0.0,0.0,0.0,0.0,0.001,0.219539093748989,2.861427370541569e-05,0.0,0.0,0.0,-0.0290642568980622,0.0,0.0,0.0,0.0,0.0,0.0,0.0,0.0,0.0,0.0,0.0,0.0,0.0,0.0,0.0,0.0,0.0,0.0,0.0,0.0,0.0,0.0,0.0,0.0,0.0,0.0,0.0,0.0,0.0,0.0,0.0,0.0,0.0,0.0,0.0,0.0,0.054336481852333196,-0.08344844245857855,-0.13846145988219274,0.0,0.0,0.0
1079,165,967000000,165.967,base_footprint,-0.020254155011273183,-0.023806369155573954,0.029347468289445858,1.0379717557249493,0.0,0.0,0.0,0.0,0.0,0.0,0.0,0.0,0.0,0.02353524014958218,0.055327054522375706,-0.05192372446829716,0.0,0.0,0.0,0.0,0.0,0.0,0.0,0.0,0.0,-0.1909536277828276,-0.2531326836441976,0.013155134890314002,0.0,0.0,0.0,0.0,0.0,0.0,0.0,0.0,0.0,0.0,0.0,0.0,0.0,0.0,0.0,1.0,-2.2932088218132987,0.7871851988006376,0.1118874983432327,0.0003195747158872,0.0038374166602338,-0.0855855191129752,0.9963233867693458,1e-05,0.0,0.0,0.0,0.0,0.0,0.0,1e-05,0.0,0.0,0.0,0.0,0.0,0.0,1000000000000.0,0.0,0.0,0.0,0.0,0.0,0.0,1000000000000.0,0.0,0.0,0.0,0.0,0.0,0.0,1000000000000.0,0.0,0.0,0.0,0.0,0.0,0.0,0.001,0.2184398512625433,2.581223616893863e-05,0.0,0.0,0.0,-0.0449074888038038,0.0,0.0,0.0,0.0,0.0,0.0,0.0,0.0,0.0,0.0,0.0,0.0,0.0,0.0,0.0,0.0,0.0,0.0,0.0,0.0,0.0,0.0,0.0,0.0,0.0,0.0,0.0,0.0,0.0,0.0,0.0,0.0,0.0,0.0,0.0,0.0,0.3626276035800343,0.04307415266987821,-0.0029762963527993507,0.0,0.0,0.0
1112,166,0,166.0,base_footprint,0.04153633824996803,0.08534065833201808,-0.2694539105509158,1.024192427824928,0.0,0.0,0.0,0.0,0.0,0.0,0.0,0.0,0.0,0.057219044474662153,0.06471302658953496,0.019244525160222382,0.0,0.0,0.0,0.0,0.0,0.0,0.0,0.0,0.0,-0.00716018668597811,-0.13014638933540779,0.22034241235574872,0.0,0.0,0.0,0.0,0.0,0.0,0.0,0.0,0.0,0.0,0.0,0.0,0.0,0.0,0.0,1.0,-2.519177275676473,1.1982758235319186,-0.22954954768052843,0.0003239388010226,0.0038386638960845,-0.0861463079086876,0.9962750490486288,1e-05,0.0,0.0,0.0,0.0,0.0,0.0,1e-05,0.0,0.0,0.0,0.0,0.0,0.0,1000000000000.0,0.0,0.0,0.0,0.0,0.0,0.0,1000000000000.0,0.0,0.0,0.0,0.0,0.0,0.0,1000000000000.0,0.0,0.0,0.0,0.0,0.0,0.0,0.001,0.2201624010145899,1.632204841679752e-06,0.0,0.0,0.0,-0.0212591493158835,0.0,0.0,0.0,0.0,0.0,0.0,0.0,0.0,0.0,0.0,0.0,0.0,0.0,0.0,0.0,0.0,0.0,0.0,0.0,0.0,0.0,0.0,0.0,0.0,0.0,0.0,0.0,0.0,0.0,0.0,0.0,0.0,0.0,0.0,0.0,0.0,0.3377553533282188,0.017114761404904404,-0.02607802326730584,0.0,0.0,0.0
1146,166,34000000,166.034,base_footprint,0.06849058679461809,-0.09548725171584897,-0.03811576454451089,0.9780116516985491,0.0,0.0,0.0,0.0,0.0,0.0,0.0,0.0,0.0,0.03129701779734387,-0.05395471982134783,-0.06348701650804857,0.0,0.0,0.0,0.0,0.0,0.0,0.0,0.0,0.0,-0.0868361294277963,0.033441883062355876,0.11014531743160129,0.0,0.0,0.0,0.0,0.0,0.0,0.0,0.0,0.0,0.0,0.0,0.0,0.0,0.0,0.0,1.0,-2.139749123273079,1.109894318951871,-0.01868489849150732,0.0003249401753789,0.0038398675075106,-0.0861635815596821,0.996273550308456,1e-05,0.0,0.0,0.0,0.0,0.0,0.0,1e-05,0.0,0.0,0.0,0.0,0.0,0.0,1000000000000.0,0.0,0.0,0.0,0.0,0.0,0.0,1000000000000.0,0.0,0.0,0.0,0.0,0.0,0.0,1000000000000.0,0.0,0.0,0.0,0.0,0.0,0.0,0.001,0.21994326333342,1.8612744975346485e-06,0.0,0.0,0.0,-0.0006500982679289,0.0,0.0,0.0,0.0,0.0,0.0,0.0,0.0,0.0,0.0,0.0,0.0,0.0,0.0,0.0,0.0,0.0,0.0,0.0,0.0,0.0,0.0,0.0,0.0,0.0,0.0,0.0,0.0,0.0,0.0,0.0,0.0,0.0,0.0,0.0,0.0,0.39136609589337484,0.03458550912729884,0.07064704996349173,0.0,0.0,0.0
1179,166,67000000,166.067,base_footprint,0.015382234207640556,-0.0108790813716072,-0.12227208517657479,1.0568961459855586,0.0,0.0,0.0,0.0,0.0,0.0,0.0,0.0,0.0,-0.07968617507395952,0.03519675788307855,-0.018383404932358453,0.0,0.0,0.0,0.0,0.0,0.0,0.0,0.0,0.0,0.14710703316518822,-0.10903922682243199,-0.30722567150622654,0.0,0.0,0.0,0.0,0.0,0.0,0.0,0.0,0.0,0.0,0.0,0.0,0.0,0.0,0.0,1.0,-1.6707345873682957,1.4206714288873508,0.3332747232880102,0.0003246698341538,0.0038395889858258,-0.0861741968191121,0.9962726333431524,1e-05,0.0,0.0,0.0,0.0,0.0,0.0,1e-05,0.0,0.0,0.0,0.0,0.0,0.0,1000000000000.0,0.0,0.0,0.0,0.0,0.0,0.0,1000000000000.0,0.0,0.0,0.0,0.0,0.0,0.0,1000000000000.0,0.0,0.0,0.0,0.0,0.0,0.0,0.001,0.2199813860323861,5.717075686612061e-07,0.0,0.0,0.0,-0.0008170160243281,0.0,0.0,0.0,0.0,0.0,0.0,0.0,0.0,0.0,0.0,0.0,0.0,0.0,0.0,0.0,0.0,0.0,0.0,0.0,0.0,0.0,0.0,0.0,0.0,0.0,0.0,0.0,0.0,0.0,0.0,0.0,0.0,0.0,0.0,0.0,0.0,0.2057800252688848,-0.010587250452253538,0.013206932812958578,0.0,0.0,0.0
1212,166,100000000,166.1,base_footprint,-0.081642123958119,0.11802875828518751,-0.16428250549126255,0.9641084663769603,0.0,0.0,0.0,0.0,0.0,0.0,0.0,0.0,0.0,-0.018346428649279906,-0.014545415300773232,0.026970465773427422,0.0,0.0,0.0,0.0,0.0,0.0,0.0,0.0,0.0,0.06752366382126426,0.1597995153077726,-0.11402612010040035,0.0,0.0,0.0,0.0,0.0,0.0,0.0,0.0,0.0,0.0,0.0,0.0,0.0,0.0,0.0,1.0,-2.398766165500704,0.9305719874092141,-0.00014622313872647585,0.0003244548910545,0.0038397071453245,-0.0861864883775552,0.9962715697033652,1e-05,0.0,0.0,0.0,0.0,0.0,0.0,1e-05,0.0,0.0,0.0,0.0,0.0,0.0,1000000000000.0,0.0,0.0,0.0,0.0,0.0,0.0,1000000000000.0,0.0,0.0,0.0,0.0,0.0,0.0,1000000000000.0,0.0,0.0,0.0,0.0,0.0,0.0,0.001,0.2200254209211871,-5.722424303161722e-07,0.0,0.0,0.0,-0.0009393015901958,0.0,0.0,0.0,0.0,0.0,0.0,0.0,0.0,0.0,0.0,0.0,0.0,0.0,0.0,0.0,0.0,0.0,0.0,0.0,0.0,0.0,0.0,0.0,0.0,0.0,0.0,0.0,0.0,0.0,0.0,0.0,0.0,0.0,0.0,0.0,0.0,0.15064082822153785,-0.14822553444867367,-0.0007923414844377652,0.0,0.0,0.0
1246,166,134000000,166.134,base_footprint,-0.11965182394400739,0.13669099674655233,-0.13717695483590056,0.9236439699055636,0.0,0.0,0.0,0.0,0.0,0.0,0.0,0.0,0.0,0.017994598100785554,0.04723303812023897,0.04968221185787694,0.0,0.0,0.0,0.0,0.0,0.0,0.0,0.0,0.0,0.05529820335548483,0.061035255867512864,-0.09581616621527887,0.0,0.0,0.0,0.0,0.0,0.0,0.0,0.0,0.0,0.0,0.0,0.0,0.0,0.0,0.0,1.0,-2.3286667245737807,0.7846135182055836,-0.1059814307980229,0.0003242087534619,0.0038400869408531,-0.0862008356759837,0.9962703270446897,1e-05,0.0,0.0,0.0,0.0,0.0,0.0,1e-05,0.0,0.0,0.0,0.0,0.0,0.0,1000000000000.0,0.0,0.0,0.0,0.0,0.0,0.0,1000000000000.0,0.0,0.0,0.0,0.0,0.0,0.0,1000000000000.0,0.0,0.0,0.0,0.0,0.0,0.0,0.001,0.2200695706373101,-1.324964243036575e-06,0.0,0.0,0.0,-0.0010265496805858,0.0,0.0,0.0,0.0,0.0,0.0,0.0,0.0,0.0,0.0,0.0,0.0,0.0,0.0,0.0,0.0,0.0,0.0,0.0,0.0,0.0,0.0,0.0,0.0,0.0,0.0,0.0,0.0,0.0,0.0,0.0,0.0,0.0,0.0,0.0,0.0,0.1842191206039865,0.051936326217845566,0.1505341771711459,0.0,0.0,0.0
1279,166,167000000,166.167,base_footprint,-0.13331290237800408,0.05413097122497464,-0.08001980002024292,0.9459896798178599,0.0,0.0,0.0,0.0,0.0,0.0,0.0,0.0,0.0,0.026621230730585744,-0.10982408319437349,0.07692675383439486,0.0,0.0,0.0,0.0,0.0,0.0,0.0,0.0,0.0,-0.0560784495676017,-0.14584318888566425,0.029231734666611917,0.0,0.0,0.0,0.0,0.0,0.0,0.0,0.0,0.0,0.0,0.0,0.0,0.0,0.0,0.0,1.0,-2.3836081783261354,1.1062556240813133,0.13223338543023652,0.0003240106511121,0.0038406792077224,-0.0862163493942618,0.9962689824025678,1e-05,0.0,0.0,0.0,0.0,0.0,0.0,1e-05,0.0,0.0,0.0,0.0,0.0,0.0,1000000000000.0,0.0,0.0,0.0,0.0,0.0,0.0,1000000000000.0,0.0,0.0,0.0,0.0,0.0,0.0,1000000000000.0,0.0,0.0,0.0,0.0,0.0,0.0,0.001,0.2201134584217985,-1.4506635464262008e-06,0.0,0.0,0.0,-0.0011092630863159,0.0,0.0,0.0,0.0,0.0,0.0,0.0,0.0,0.0,0.0,0.0,0.0,0.0,0.0,0.0,0.0,0.0,0.0,0.0,0.0,0.0,0.0,0.0,0.0,0.0,0.0,0.0,0.0,0.0,0.0,0.0,0.0,0.0,0.0,0.0,0.0,0.17197677902677036,-0.18343072573647035,-0.01763285394686865,0.0,0.0,0.0
1312,166,200000000,166.2,base_footprint,-0.03170600912141748,-0.007859202304093147,-0.08398409078604763,0.9948184898877553,0.0,0.0,0.0,0.0,0.0,0.0,0.0,0.0,0.0,0.013090355090325282,0.07886181309687504,-0.013860359475568159,0.0,0.0,0.0,0.0,0.0,0.0,0.0,0.0,0.0,0.047308990901152384,-0.061449216027767366,0.13899322946942874,0.0,0.0,0.0,0.0,0.0,0.0,0.0,0.0,0.0,0.0,0.0,0.0,0.0,0.0,0.0,1.0,-2.2418345906943076,0.8000374186516676,0.5296310813818458,0.0003238036390447,0.0038414849734773,-0.0862313896386931,0.9962676776777324,1e-05,0.0,0.0,0.0,0.0,0.0,0.0,1e-05,0.0,0.0,0.0,0.0,0.0,0.0,1000000000000.0,0.0,0.0,0.0,0.0,0.0,0.0,1000000000000.0,0.0,0.0,0.0,0.0,0.0,0.0,1000000000000.0,0.0,0.0,0.0,0.0,0.0,0.0,0.001,0.2201235656581372,-3.260383973323344e-06,0.0,0.0,0.0,-0.0008766173653249,0.0,0.0,0.0,0.0,0.0,0.0,0.0,0.0,0.0,0.0,0.0,0.0,0.0,0.0,0.0,0.0,0.0,0.0,0.0,0.0,0.0,0.0,0.0,0.0,0.0,0.0,0.0,0.0,0.0,0.0,0.0,0.0,0.0,0.0,0.0,0.0,0.3419447690114393,-0.06897591666341925,0.13738687020775617,0.0,0.0,0.0
1346,166,234000000,166.234,base_footprint,-0.04009134317257883,-0.032339694344253093,-0.18499069387973927,0.9655891920307692,0.0,0.0,0.0,0.0,0.0,0.0,0.0,0.0,0.0,0.020476792397269326,0.06228662564956778,-0.08407596341595928,0.0,0.0,0.0,0.0,0.0,0.0,0.0,0.0,0.0,0.04311606416996081,-0.37737393140297043,-0.1923514516366024,0.0,0.0,0.0,0.0,0.0,0.0,0.0,0.0,0.0,0.0,0.0,0.0,0.0,0.0,0.0,1.0,-2.1194735759317234,0.8352969106580781,-0.3348004602770722,0.0003266658578444,0.0038427218013237,-0.0870278425453628,0.9961984146747448,1e-05,0.0,0.0,0.0,0.0,0.0,0.0,1e-05,0.0,0.0,0.0,0.0,0.0,0.0,1000000000000.0,0.0,0.0,0.0,0.0,0.0,0.0,1000000000000.0,0.0,0.0,0.0,0.0,0.0,0.0,1000000000000.0,0.0,0.0,0.0,0.0,0.0,0.0,0.001,0.2070408571761382,5.847095121858104e-06,0.0,0.0,0.0,-0.0435661022231701,0.0,0.0,0.0,0.0,0.0,0.0,0.0,0.0,0.0,0.0,0.0,0.0,0.0,0.0,0.0,0.0,0.0,0.0,0.0,0.0,0.0,0.0,0.0,0.0,0.0,0.0,0.0,0.0,0.0,0.0,0.0,0.0,0.0,0.0,0.0,0.0,0.35632179533502206,0.03181262916237655,-0.000493921826131268,0.0,0.0,0.0072423936799168
1379,166,267000000,166.267,base_footprint,0.06335526654002174,0.009653361193997017,0.009166721246365736,0.9206069948073246,0.0,0.0,0.0,0.0,0.0,0.0,0.0,0.0,0.0,0.07218363148913469,-0.060275393297471516,-0.03172394903766443,0.0,0.0,0.0,0.0,0.0,0.0,0.0,0.0,0.0,-0.3070496202394264,-0.3217628328412368,-0.41298710775208997,0.0,0.0,0.0,0.0,0.0,0.0,0.0,0.0,0.0,0.0,0.0,0.0,0.0,0.0,0.0,1.0,-2.023516196302306,0.7826036256734661,0.07358595315547774,0.0003263651959574,0.0038431995936246,-0.0870534242686866,0.9961961777811328,1e-05,0.0,0.0,0.0,0.0,0.0,0.0,1e-05,0.0,0.0,0.0,0.0,0.0,0.0,1000000000000.0,0.0,0.0,0.0,0.0,0.0,0.0,1000000000000.0,0.0,0.0,0.0,0.0,0.0,0.0,1000000000000.0,0.0,0.0,0.0,0.0,0.0,0.0,0.001,0.2070223296117569,1.9935076942624586e-05,0.0,0.0,0.0,-0.0009627371606721,0.0,0.0,0.0,0.0,0.0,0.0,0.0,0.0,0.0,0.0,0.0,0.0,0.0,0.0,0.0,0.0,0.0,0.0,0.0,0.0,0.0,0.0,0.0,0.0,0.0,0.0,0.0,0.0,0.0,0.0,0.0,0.0,0.0,0.0,0.0,0.0,0.34329986969975984,-0.027684960132836934,-0.051603351666206346,0.0,0.0,0.0072423936799168
1412,166,300000000,166.3,base_footprint,0.10581002131330323,0.10086974208263805,-0.043769559048616916,1.0128612304751705,0.0,0.0,0.0,0.0,0.0,0.0,0.0,0.0,0.0,-0.06210375251064673,0.05431867785590933,-0.06107484709197461,0.0,0.0,0.0,0.0,0.0,0.0,0.0,0.0,0.0,0.12337633867696875,0.21992577046314485,0.28729249362441484,0.0,0.0,0.0,0.0,0.0,0.0,0.0,0.0,0.0,0.0,0.0,0.0,0.0,0.0,0.0,1.0,-1.9062915820881499,0.7115738355067563,0.20391115285380135,0.0003274547698885,0.0038432769127453,-0.0870551001175097,0.9961960306784384,1e-05,0.0,0.0,0.0,0.0,0.0,0.0,1e-05,0.0,0.0,0.0,0.0,0.0,0.0,1000000000000.0,0.0,0.0,0.0,0.0,0.0,0.0,1000000000000.0,0.0,0.0,0.0,0.0,0.0,0.0,1000000000000.0,0.0,0.0,0.0,0.0,0.0,0.0,0.001,0.2066220947696002,-3.952955141890702e-06,0.0,0.0,0.0,0.0039406299155406,0.0,0.0,0.0,0.0,0.0,0.0,0.0,0.0,0.0,0.0,0.0,0.0,0.0,0.0,0.0,0.0,0.0,0.0,0.0,0.0,0.0,0.0,0.0,0.0,0.0,0.0,0.0,0.0,0.0,0.0,0.0,0.0,0.0,0.0,0.0,0.0,0.12346593028313813,-0.01590610728039717,0.0555617086309611,0.0,0.0,0.0072423936799168
1446,166,334000000,166.334,base_footprint,-0.06814150966161883,0.15380089765535407,-0.09370353066428411,0.9160411244892667,0.0,0.0,0.0,0.0,0.0,0.0,0.0,0.0,0.0,0.03516624263701763,-0.05697088024665206,0.057911407291269715,0.0,0.0,0.0,0.0,0.0,0.0,0.0,0.0,0.0,0.018778217289585286,-0.257384071276906,0.29971150853004136,0.0,0.0,0.0,0.0,0.0,0.0,0.0,0.0,0.0,0.0,0.0,0.0,0.0,0.0,0.0,1.0,-2.0180443030827857,0.5847827265270227,0.3853421022958715,0.0003298739752451,0.0038362624024142,-0.0863166127708354,0.996260315697514,1e-05,0.0,0.0,0.0,0.0,0.0,0.0,1e-05,0.0,0.0,0.0,0.0,0.0,0.0,1000000000000.0,0.0,0.0,0.0,0.0,0.0,0.0,1000000000000.0,0.0,0.0,0.0,0.0,0.0,0.0,1000000000000.0,0.0,0.0,0.0,0.0,0.0,0.0,0.001,0.2133631065296362,-1.4437349003249e-06,0.0,0.0,0.0,0.0390526150333193,0.0,0.0,0.0,0.0,0.0,0.0,0.0,0.0,0.0,0.0,0.0,0.0,0.0,0.0,0.0,0.0,0.0,0.0,0.0,0.0,0.0,0.0,0.0,0.0,0.0,0.0,0.0,0.0,0.0,0.0,0.0,0.0,0.0,0.0,0.0,0.0,0.009072339126648288,0.13367060301533046,-0.10355531946359237,0.0,0.0,0.0163636337965726
1479,166,367000000,166.367,base_footprint,-0.06588727898683361,-0.18619453772846403,0.032994948087344975,0.986552842980004,0.0,0.0,0.0,0.0,0.0,0.0,0.0,0.0,0.0,-0.02926923199749195,0.04725923920435111,0.03891370892089451,0.0,0.0,0.0,0.0,0.0,0.0,0.0,0.0,0.0,-0.0685331453781707,-0.15406646567372323,-0.07916558479062992,0.0,0.0,0.0,0.0,0.0,0.0,0.0,0.0,0.0,0.0,0.0,0.0,0.0,0.0,0.0,1.0,-2.050403275212168,0.8910499445480549,-0.36899138721440294,0.0003250410164005,0.003842766920564,-0.0858496968260702,0.9963006358753386,1e-05,0.0,0.0,0.0,0.0,0.0,0.0,1e-05,0.0,0.0,0.0,0.0,0.0,0.0,1000000000000.0,0.0,0.0,0.0,0.0,0.0,0.0,1000000000000.0,0.0,0.0,0.0,0.0,0.0,0.0,1000000000000.0,0.0,0.0,0.0,0.0,0.0,0.0,0.001,0.2200545602660268,8.843167224277526e-06,0.0,0.0,0.0,0.00815850394923,0.0,0.0,0.0,0.0,0.0,0.0,0.0,0.0,0.0,0.0,0.0,0.0,0.0,0.0,0.0,0.0,0.0,0.0,0.0,0.0,0.0,0.0,0.0,0.0,0.0,0.0,0.0,0.0,0.0,0.0,0.0,0.0,0.0,0.0,0.0,0.0,0.2979360192409161,0.00953262564787391,0.01752866729814604,0.0,0.0,0.0163636337965726
1512,166,400000000,166.4,base_footprint,0.11132692293097211,0.062321440415982136,-0.06240865956488831,0.9292252929994318,0.0,0.0,0.0,0.0,0.0,0.0,0.0,0.0,0.0,0.13307090829640988,-0.005426653299384618,0.05650350805546058,0.0,0.0,0.0,0.0,0.0,0.0,0.0,0.0,0.0,0.0334282986806834,0.16084695963264442,-0.14244430497250934,0.0,0.0,0.0,0.0,0.0,0.0,0.0,0.0,0.0,0.0,0.0,0.0,0.0,0.0,0.0,1.0,-2.340841053482632,0.8769348964598257,-0.1369060402030662,0.0003255122444179,0.0038435204946175,-0.0857159281300014,0.9963121504111042,1e-05,0.0,0.0,0.0,0.0,0.0,0.0,1e-05,0.0,0.0,0.0,0.0,0.0,0.0,1000000000000.0,0.0,0.0,0.0,0.0,0.0,0.0,1000000000000.0,0.0,0.0,0.0,0.0,0.0,0.0,1000000000000.0,0.0,0.0,0.0,0.0,0.0,0.0,0.001,0.2197853005870839,2.383641081165483e-05,0.0,0.0,0.0,0.0071579465505324,0.0,0.0,0.0,0.0,0.0,0.0,0.0,0.0,0.0,0.0,0.0,0.0,0.0,0.0,0.0,0.0,0.0,0.0,0.0,0.0,0.0,0.0,0.0,0.0,0.0,0.0,0.0,0.0,0.0,0.0,0.0,0.0,0.0,0.0,0.0,0.0,0.3363230255274521,0.06019370455340528,0.07049600302039621,0.0,0.0,0.0163636337965726
1546,166,434000000,166.434,base_footprint,-0.11199025429099019,-0.008564840935173977,-0.03830225849488799,0.9363779975704453,0.0,0.0,0.0,0.0,0.0,0.0,0.0,0.0,0.0,0.027037225755571288,-0.02996452890175467,-0.03766052384554974,0.0,0.0,0.0,0.0,0.0,0.0,0.0,0.0,0.0,0.1410684100669574,-0.12712768553113446,-0.032627790696702054,0.0,0.0,0.0,0.0,0.0,0.0,0.0,0.0,0.0,0.0,0.0,0.0,0.0,0.0,0.0,1.0,-1.9223139980944755,0.7544935938336155,-0.12705577448104258,0.0003207654524419,0.0038379583849463,-0.0856759879004064,0.9963156087717636,1e-05,0.0,0.0,0.0,0.0,0.0,0.0,1e-05,0.0,0.0,0.0,0.0,0.0,0.0,1000000000000.0,0.0,0.0,0.0,0.0,0.0,0.0,1000000000000.0,0.0,0.0,0.0,0.0,0.0,0.0,1000000000000.0,0.0,0.0,0.0,0.0,0.0,0.0,0.001,0.2179804150404402,1.644234409845652e-05,0.0,0.0,0.0,-0.0083583478919247,0.0,0.0,0.0,0.0,0.0,0.0,0.0,0.0,0.0,0.0,0.0,0.0,0.0,0.0,0.0,0.0,0.0,0.0,0.0,0.0,0.0,0.0,0.0,0.0,0.0,0.0,0.0,0.0,0.0,0.0,0.0,0.0,0.0,0.0,0.0,0.0,0.3600705703536804,-0.05929380524856292,0.18739164611801182,0.0,0.0,0.0313682481646537
1579,166,467000000,166.467,base_footprint,0.06698000558988933,0.03371439069533776,-0.013659309520216018,0.9475549015890886,0.0,0.0,0.0,0.0,0.0,0.0,0.0,0.0,0.0,-0.050366956523242745,-0.06310344888350744,-0.004049674845063729,0.0,0.0,0.0,0.0,0.0,0.0,0.0,0.0,0.0,-0.07972922496772743,-0.17637216073547082,-0.08513670062972395,0.0,0.0,0.0,0.0,0.0,0.0,0.0,0.0,0.0,0.0,0.0,0.0,0.0,0.0,0.0,1.0,-2.2819433542362932,0.7067828320972674,0.05536599726429527,0.0003202592074883,0.0038367541199498,-0.0857462432767417,0.9963095696196984,1e-05,0.0,0.0,0.0,0.0,0.0,0.0,1e-05,0.0,0.0,0.0,0.0,0.0,0.0,1000000000000.0,0.0,0.0,0.0,0.0,0.0,0.0,1000000000000.0,0.0,0.0,0.0,0.0,0.0,0.0,1000000000000.0,0.0,0.0,0.0,0.0,0.0,0.0,0.001,0.21909135299822,-2.7145245258680677e-06,0.0,0.0,0.0,0.0067528611341116,0.0,0.0,0.0,0.0,0.0,0.0,0.0,0.0,0.0,0.0,0.0,0.0,0.0,0.0,0.0,0.0,0.0,0.0,0.0,0.0,0.0,0.0,0.0,0.0,0.0,0.0,0.0,0.0,0.0,0.0,0.0,0.0,0.0,0.0,0.0,0.0,0.27643310360532136,-0.06653103288681056,0.08311607370718549,0.0,0.0,0.0313682481646537
1612,166,500000000,166.5,base_footprint,0.004057214355671188,0.00013430333640078408,-0.029281442619155433,1.0440277819719488,0.0,0.0,0.0,0.0,0.0,0.0,0.0,0.0,0.0,-0.10457737779220587,0.02197574356844038,-0.06315090347859967,0.0,0.0,0.0,0.0,0.0,0.0,0.0,0.0,0.0,0.01358327579190597,0.008369491559174217,-0.15394360609226293,0.0,0.0,0.0,0.0,0.0,0.0,0.0,0.0,0.0,0.0,0.0,0.0,0.0,0.0,0.0,1.0,-2.0240711306779566,1.3087450050984986,0.1779051711000894,0.0003224166038908,0.0038401172017156,-0.0854995025726789,0.996330760644895,1e-05,0.0,0.0,0.0,0.0,0.0,0.0,1e-05,0.0,0.0,0.0,0.0,0.0,0.0,1000000000000.0,0.0,0.0,0.0,0.0,0.0,0.0,1000000000000.0,0.0,0.0,0.0,0.0,0.0,0.0,1000000000000.0,0.0,0.0,0.0,0.0,0.0,0.0,0.001,0.219791897053854,-4.685175740495873e-06,0.0,0.0,0.0,0.0158717374570339,0.0,0.0,0.0,0.0,0.0,0.0,0.0,0.0,0.0,0.0,0.0,0.0,0.0,0.0,0.0,0.0,0.0,0.0,0.0,0.0,0.0,0.0,0.0,0.0,0.0,0.0,0.0,0.0,0.0,0.0,0.0,0.0,0.0,0.0,0.0,0.0,0.31500038331100216,-0.09683531854650766,-0.023365900440812118,0.0,0.0,0.0313682481646537
1646,166,534000000,166.534,base_footprint,-0.10356933648531189,-0.06068477589588488,-0.007902207672799741,0.9697138639956858,0.0,0.0,0.0,0.0,0.0,0.0,0.0,0.0,0.0,-0.03430885971991849,-0.039432727287028124,0.11294940695698563,0.0,0.0,0.0,0.0,0.0,0.0,0.0,0.0,0.0,-0.1549793334571703,-0.3245342482497593,0.06514673127548147,0.0,0.0,0.0,0.0,0.0,0.0,0.0,0.0,0.0,0.0,0.0,0.0,0.0,0.0,0.0,1.0,-2.1785176709426186,0.8011590332219476,0.20933359165061288,0.0003201586022303,0.0038399875919811,-0.0849814377228502,0.9963750836087384,1e-05,0.0,0.0,0.0,0.0,0.0,0.0,1e-05,0.0,0.0,0.0,0.0,0.0,0.0,1000000000000.0,0.0,0.0,0.0,0.0,0.0,0.0,1000000000000.0,0.0,0.0,0.0,0.0,0.0,0.0,1000000000000.0,0.0,0.0,0.0,0.0,0.0,0.0,0.001,0.2196859836879131,-1.119648344187485e-05,0.0,0.0,0.0,0.0305820099098268,0.0,0.0,0.0,0.0,0.0,0.0,0.0,0.0,0.0,0.0,0.0,0.0,0.0,0.0,0.0,0.0,0.0,0.0,0.0,0.0,0.0,0.0,0.0,0.0,0.0,0.0,0.0,0.0,0.0,0.0,0.0,0.0,0.0,0.0,0.0,0.0,0.1374943279967441,0.031029143557195566,-0.08721965291697496,0.0,0.0,0.0386820845305919
1679,166,567000000,166.567,base_footprint,-0.06992578524012541,0.05604438627754912,-0.17324755060664837,0.9010610551064042,0.0,0.0,0.0,0.0,0.0,0.0,0.0,0.0,0.0,0.009159849132995859,-0.03601129563735627,0.009003901379198459,0.0,0.0,0.0,0.0,0.0,0.0,0.0,0.0,0.0,-0.1081106111900396,-0.009651633377530996,-0.04745103533766174,0.0,0.0,0.0,0.0,0.0,0.0,0.0,0.0,0.0,0.0,0.0,0.0,0.0,0.0,0.0,1.0,-2.3589577568925586,0.9300892477915472,0.07325177126142876,0.0003179566480031,0.0038401548641615,-0.0844774353869814,0.9964179419423496,1e-05,0.0,0.0,0.0,0.0,0.0,0.0,1e-05,0.0,0.0,0.0,0.0,0.0,0.0,1000000000000.0,0.0,0.0,0.0,0.0,0.0,0.0,1000000000000.0,0.0,0.0,0.0,0.0,0.0,0.0,1000000000000.0,0.0,0.0,0.0,0.0,0.0,0.0,0.001,0.2197302478720051,-1.1669131948111032e-05,0.0,0.0,0.0,0.0304769593063495,0.0,0.0,0.0,0.0,0.0,0.0,0.0,0.0,0.0,0.0,0.0,0.0,0.0,0.0,0.0,0.0,0.0,0.0,0.0,0.0,0.0,0.0,0.0,0.0,0.0,0.0,0.0,0.0,0.0,0.0,0.0,0.0,0.0,0.0,0.0,0.0,0.12331991468849726,-0.12929599007740608,0.04842205993405194,0.0,0.0,0.0386820845305919
1712,166,600000000,166.6,base_footprint,0.0894265040822415,-0.07991741031970107,-0.09518937319962942,0.9980421454006444,0.0,0.0,0.0,0.0,0.0,0.0,0.0,0.0,0.0,0.03313360284002569,-0.07564748525457096,0.0025704032168271523,0.0,0.0,0.0,0.0,0.0,0.0,0.0,0.0,0.0,-0.045335761855346546,-0.017270846783287754,0.08867881162510349,0.0,0.0,0.0,0.0,0.0,0.0,0.0,0.0,0.0,0.0,0.0,0.0,0.0,0.0,0.0,1.0,-2.0034126447212257,0.6467484820079532,-0.08878539991599911,0.0003157446691079,0.0038406027407075,-0.0839749078629936,0.9964604181427852,1e-05,0.0,0.0,0.0,0.0,0.0,0.0,1e-05,0.0,0.0,0.0,0.0,0.0,0.0,1000000000000.0,0.0,0.0,0.0,0.0,0.0,0.0,1000000000000.0,0.0,0.0,0.0,0.0,0.0,0.0,1000000000000.0,0.0,0.0,0.0,0.0,0.0,0.0,0.001,0.2197738932320311,-1.2494262542551982e-05,0.0,0.0,0.0,0.0303876802819627,0.0,0.0,0.0,0.0,0.0,0.0,0.0,0.0,0.0,0.0,0.0,0.0,0.0,0.0,0.0,0.0,0.0,0.0,0.0,0.0,0.0,0.0,0.0,0.0,0.0,0.0,0.0,0.0,0.0,0.0,0.0,0.0,0.0,0.0,0.0,0.0,0.18499753659100412,-0.05730336557106687,-0.02495307124058395,0.0,0.0,0.0386820845305919
1746,166,634000000,166.634,base_footprint,0.14840440044664138,-0.17148220369000283,-0.09049555754994351,0.9251321049649504,0.0,0.0,0.0,0.0,0.0,0.0,0.0,0.0,0.0,0.0420040387355242,-0.10429399195236715,-0.042811678329404884,0.0,0.0,0.0,0.0,0.0,0.0,0.0,0.0,0.0,-0.04950090524428392,0.11728132666600198,-0.09170571535207214,0.0,0.0,0.0,0.0,0.0,0.0,0.0,0.0,0.0,0.0,0.0,0.0,0.0,0.0,0.0,1.0,-1.9304772008265596,0.6854356121689643,-0.03309429541199766,0.000313007004527,0.0038413179911181,-0.0833354794417756,0.9965140963222324,1e-05,0.0,0.0,0.0,0.0,0.0,0.0,1e-05,0.0,0.0,0.0,0.0,0.0,0.0,1000000000000.0,0.0,0.0,0.0,0.0,0.0,0.0,1000000000000.0,0.0,0.0,0.0,0.0,0.0,0.0,1000000000000.0,0.0,0.0,0.0,0.0,0.0,0.0,0.001,0.2197542498371211,-1.5425392928501702e-05,0.0,0.0,0.0,0.0375984843620925,0.0,0.0,0.0,0.0,0.0,0.0,0.0,0.0,0.0,0.0,0.0,0.0,0.0,0.0,0.0,0.0,0.0,0.0,0.0,0.0,0.0,0.0,0.0,0.0,0.0,0.0,0.0,0.0,0.0,0.0,0.0,0.0,0.0,0.0,0.0,0.0,0.13817360968211712,-0.029900611532275297,0.013784282510196975,0.0,0.0,-0.0033853964414447
1779,166,667000000,166.667,base_footprint,-0.14932158656522837,-0.013657310033512117,-0.08383333998964025,1.0170021554591206,0.0,0.0,0.0,0.0,0.0,0.0,0.0,0.0,0.0,-0.0005190163835873576,-0.021005953472333624,-0.0016157593917599938,0.0,0.0,0.0,0.0,0.0,0.0,0.0,0.0,0.0,-0.20043648126194907,-0.14297006955223668,-0.019860932121307098,0.0,0.0,0.0,0.0,0.0,0.0,0.0,0.0,0.0,0.0,0.0,0.0,0.0,0.0,0.0,1.0,-2.1265357270603835,0.8543164931427006,0.20176903955238842,0.0003102029603306,0.0038424530772262,-0.0827160445502341,0.9965657004444998,1e-05,0.0,0.0,0.0,0.0,0.0,0.0,1e-05,0.0,0.0,0.0,0.0,0.0,0.0,1000000000000.0,0.0,0.0,0.0,0.0,0.0,0.0,1000000000000.0,0.0,0.0,0.0,0.0,0.0,0.0,1000000000000.0,0.0,0.0,0.0,0.0,0.0,0.0,0.001,0.2197831623950491,-1.7381472887614824e-05,0.0,0.0,0.0,0.0376402436725963,0.0,0.0,0.0,0.0,0.0,0.0,0.0,0.0,0.0,0.0,0.0,0.0,0.0,0.0,0.0,0.0,0.0,0.0,0.0,0.0,0.0,0.0,0.0,0.0,0.0,0.0,0.0,0.0,0.0,0.0,0.0,0.0,0.0,0.0,0.0,0.0,0.12689058044232343,-0.04699563820969338,-0.030866191958393175,0.0,0.0,-0.0033853964414447
1812,166,700000000,166.7,base_footprint,-0.023624459282521187,0.1372431804623903,-0.0866413567888184,0.9669329367153215,0.0,0.0,0.0,0.0,0.0,0.0,0.0,0.0,0.0,-0.017400222904682534,-0.04478247974402766,0.14435349117129756,0.0,0.0,0.0,0.0,0.0,0.0,0.0,0.0,0.0,0.15141809656564048,-0.12605274863042082,-0.006886226141961439,0.0,0.0,0.0,0.0,0.0,0.0,0.0,0.0,0.0,0.0,0.0,0.0,0.0,0.0,0.0,1.0,-2.254198246589131,0.8844393541668162,-0.0979219066213878,0.0003076498301463,0.0038432592735847,-0.0820925429474719,0.9966172530626568,1e-05,0.0,0.0,0.0,0.0,0.0,0.0,1e-05,0.0,0.0,0.0,0.0,0.0,0.0,1000000000000.0,0.0,0.0,0.0,0.0,0.0,0.0,1000000000000.0,0.0,0.0,0.0,0.0,0.0,0.0,1000000000000.0,0.0,0.0,0.0,0.0,0.0,0.0,0.001,0.219790794297963,-2.203809225235359e-05,0.0,0.0,0.0,0.0378800793771461,0.0,0.0,0.0,0.0,0.0,0.0,0.0,0.0,0.0,0.0,0.0,0.0,0.0,0.0,0.0,0.0,0.0,0.0,0.0,0.0,0.0,0.0,0.0,0.0,0.0,0.0,0.0,0.0,0.0,0.0,0.0,0.0,0.0,0.0,0.0,0.0,0.30769066079537766,0.17330276911645248,0.16114864771331905,0.0,0.0,-0.0033853964414447
1846,166,734000000,166.734,base_footprint,0.07820304719545498,-0.007810221395201036,-0.001978222434182511,0.9760710831775942,0.0,0.0,0.0,0.0,0.0,0.0,0.0,0.0,0.0,0.016534219998102246,0.05761414375140008,0.039392351239441716,0.0,0.0,0.0,0.0,0.0,0.0,0.0,0.0,0.0,-0.2435229596327014,0.22490746929056238,-0.19973648660693163,0.0,0.0,0.0,0.0,0.0,0.0,0.0,0.0,0.0,0.0,0.0,0.0,0.0,0.0,0.0,1.0,-2.015073543701674,1.2933173017704767,-0.27507717814762317,0.0003075151424754,0.003844558772742,-0.0821244387098855,0.9966146202865312,1e-05,0.0,0.0,0.0,0.0,0.0,0.0,1e-05,0.0,0.0,0.0,0.0,0.0,0.0,1000000000000.0,0.0,0.0,0.0,0.0,0.0,0.0,1000000000000.0,0.0,0.0,0.0,0.0,0.0,0.0,1000000000000.0,0.0,0.0,0.0,0.0,0.0,0.0,0.001,0.2200305724125143,1.5035219665338053e-05,0.0,0.0,0.0,-0.0023854814780175,0.0,0.0,0.0,0.0,0.0,0.0,0.0,0.0,0.0,0.0,0.0,0.0,0.0,0.0,0.0,0.0,0.0,0.0,0.0,0.0,0.0,0.0,0.0,0.0,0.0,0.0,0.0,0.0,0.0,0.0,0.0,0.0,0.0,0.0,0.0,0.0,0.044296554613104694,-0.04686692921982583,-0.016899427001725194,0.0,0.0,-0.0417140014469623
1879,166,767000000,166.767,base_footprint,0.1769225917930375,0.04465575810839675,-0.13131999570963376,0.8957262104464011,0.0,0.0,0.0,0.0,0.0,0.0,0.0,0.0,0.0,-0.0728824320875606,-0.04148463113314099,-0.08874344797228136,0.0,0.0,0.0,0.0,0.0,0.0,0.0,0.0,0.0,0.12159751466647073,-0.11963606505074985,-0.2368635705940017,0.0,0.0,0.0,0.0,0.0,0.0,0.0,0.0,0.0,0.0,0.0,0.0,0.0,0.0,0.0,1.0,-2.095277089207784,0.8769693285653073,0.15345015847044818,0.0003085663415904,0.003844956876863,-0.082171552914216,0.9966107349337024,1e-05,0.0,0.0,0.0,0.0,0.0,0.0,1e-05,0.0,0.0,0.0,0.0,0.0,0.0,1000000000000.0,0.0,0.0,0.0,0.0,0.0,0.0,1000000000000.0,0.0,0.0,0.0,0.0,0.0,0.0,1000000000000.0,0.0,0.0,0.0,0.0,0.0,0.0,0.001,0.2199065830465836,-1.4858545995796724e-05,0.0,0.0,0.0,-0.0006883671612542,0.0,0.0,0.0,0.0,0.0,0.0,0.0,0.0,0.0,0.0,0.0,0.0,0.0,0.0,0.0,0.0,0.0,0.0,0.0,0.0,0.0,0.0,0.0,0.0,0.0,0.0,0.0,0.0,0.0,0.0,0.0,0.0,0.0,0.0,0.0,0.0,-0.017227220757073364,-0.11313762954623485,0.008555893966991161,0.0,0.0,-0.0417140014469623
1912,166,800000000,166.8,base_footprint,-0.06091721238737648,0.02177085427694915,-0.06808232433847836,0.9579918055557193,0.0,0.0,0.0,0.0,0.0,0.0,0.0,0.0,0.0,-0.055031098370987866,-0.07767310932449209,-0.09503335301924956,0.0,0.0,0.0,0.0,0.0,0.0,0.0,0.0,0.0,-0.17904280140623163,-0.17250524803426473,0.009655497492820134,0.0,0.0,0.0,0.0,0.0,0.0,0.0,0.0,0.0,0.0,0.0,0.0,0.0,0.0,0.0,1.0,-2.0105987509122905,0.8436005752841997,-0.1771676266518036,0.0003096124592994,0.0038445584178487,-0.0821842215718151,0.9966096915218774,1e-05,0.0,0.0,0.0,0.0,0.0,0.0,1e-05,0.0,0.0,0.0,0.0,0.0,0.0,1000000000000.0,0.0,0.0,0.0,0.0,0.0,0.0,1000000000000.0,0.0,0.0,0.0,0.0,0.0,0.0,1000000000000.0,0.0,0.0,0.0,0.0,0.0,0.0,0.001,0.2202038107223505,-3.127183314091675e-06,0.0,0.0,0.0,-0.004059609091796,0.0,0.0,0.0,0.0,0.0,0.0,0.0,0.0,0.0,0.0,0.0,0.0,0.0,0.0,0.0,0.0,0.0,0.0,0.0,0.0,0.0,0.0,0.0,0.0,0.0,0.0,0.0,0.0,0.0,0.0,0.0,0.0,0.0,0.0,0.0,0.0,0.3569055073066385,0.13410545851919053,0.038452921469409304,0.0,0.0,-0.0417140014469623
1946,166,834000000,166.834,base_footprint,-0.041967597968471784,0.014393956072120776,-0.13879370063342042,1.064115307766308,0.0,0.0,0.0,0.0,0.0,0.0,0.0,0.0,0.0,-0.034487967033191055,-0.0024983480214102625,-0.09442977489946905,0.0,0.0,0.0,0.0,0.0,0.0,0.0,0.0,0.0,0.07108744944740471,0.28234085193606373,-0.0509983337917809,0.0,0.0,0.0,0.0,0.0,0.0,0.0,0.0,0.0,0.0,0.0,0.0,0.0,0.0,0.0,1.0,-1.9547249411850571,0.8701724505325446,-0.11908535056188078,0.0003130475741064,0.0038439374417331,-0.0828296307947966,0.9965562595300672,1e-05,0.0,0.0,0.0,0.0,0.0,0.0,1e-05,0.0,0.0,0.0,0.0,0.0,0.0,1000000000000.0,0.0,0.0,0.0,0.0,0.0,0.0,1000000000000.0,0.0,0.0,0.0,0.0,0.0,0.0,1000000000000.0,0.0,0.0,0.0,0.0,0.0,0.0,0.001,0.2203038026571522,1.3510027986343707e-05,0.0,0.0,0.0,-0.0402189066338541,0.0,0.0,0.0,0.0,0.0,0.0,0.0,0.0,0.0,0.0,0.0,0.0,0.0,0.0,0.0,0.0,0.0,0.0,0.0,0.0,0.0,0.0,0.0,0.0,0.0,0.0,0.0,0.0,0.0,0.0,0.0,0.0,0.0,0.0,0.0,0.0,0.23785295627563272,0.006604761277424015,0.0391584050354395,0.0,0.0,-0.050388153642416
1979,166,867000000,166.867,base_footprint,-0.033408587259463426,0.012849134993863868,-0.13681754383895464,0.9313892370187046,0.0,0.0,0.0,0.0,0.0,0.0,0.0,0.0,0.0,-0.05612384614143901,0.012357707651749398,-0.028522301371898443,0.0,0.0,0.0,0.0,0.0,0.0,0.0,0.0,0.0,0.14484157948448473,0.008068497100305709,0.12742314594926454,0.0,0.0,0.0,0.0,0.0,0.0,0.0,0.0,0.0,0.0,0.0,0.0,0.0,0.0,0.0,1.0,-2.059798572504368,1.0208294634344801,0.009309725452592623,0.0003168412932389,0.0038444308201432,-0.0835060289916661,0.9964998058631558,1e-05,0.0,0.0,0.0,0.0,0.0,0.0,1e-05,0.0,0.0,0.0,0.0,0.0,0.0,1000000000000.0,0.0,0.0,0.0,0.0,0.0,0.0,1000000000000.0,0.0,0.0,0.0,0.0,0.0,0.0,1000000000000.0,0.0,0.0,0.0,0.0,0.0,0.0,0.001,0.2201877959879306,3.800555070896522e-05,0.0,0.0,0.0,-0.0421830179726201,0.0,0.0,0.0,0.0,0.0,0.0,0.0,0.0,0.0,0.0,0.0,0.0,0.0,0.0,0.0,0.0,0.0,0.0,0.0,0.0,0.0,0.0,0.0,0.0,0.0,0.0,0.0,0.0,0.0,0.0,0.0,0.0,0.0,0.0,0.0,0.0,0.26380276793057056,-0.009251664992926593,0.011070547469728005,0.0,0.0,-0.050388153642416
2012,166,900000000,166.9,base_footprint,-0.04386919659654741,0.08165883767018774,-0.16879580191865293,0.9192497517772947,0.0,0.0,0.0,0.0,0.0,0.0,0.0,0.0,0.0,0.007489355383285453,0.05635485839448753,-0.05513439819617246,0.0,0.0,0.0,0.0,0.0,0.0,0.0,0.0,0.0,-0.23671367735425347,0.07678278953496982,-0.22252084217196344,0.0,0.0,0.0,0.0,0.0,0.0,0.0,0.0,0.0,0.0,0.0,0.0,0.0,0.0,0.0,1.0,-2.155069322325501,0.8963100301854294,0.3329899214747964,0.0003164582041502,0.0038399861758328,-0.0843517274056568,0.9964285927471452,1e-05,0.0,0.0,0.0,0.0,0.0,0.0,1e-05,0.0,0.0,0.0,0.0,0.0,0.0,1000000000000.0,0.0,0.0,0.0,0.0,0.0,0.0,1000000000000.0,0.0,0.0,0.0,0.0,0.0,0.0,1000000000000.0,0.0,0.0,0.0,0.0,0.0,0.0,0.001,0.2187111374480009,3.457033878958432e-05,0.0,0.0,0.0,-0.0633963971858794,0.0,0.0,0.0,0.0,0.0,0.0,0.0,0.0,0.0,0.0,0.0,0.0,0.0,0.0,0.0,0.0,0.0,0.0,0.0,0.0,0.0,0.0,0.0,0.0,0.0,0.0,0.0,0.0,0.0,0.0,0.0,0.0,0.0,0.0,0.0,0.0,0.13271778236942766,0.05378398845757931,0.042206844318349424,0.0,0.0,-0.050388153642416
2046,166,934000000,166.934,base_footprint,-0.025668288091689907,-0.05889267851382141,-0.019297841764695317,0.9691973234726858,0.0,0.0,0.0,0.0,0.0,0.0,0.0,0.0,0.0,0.06871894612229239,-0.023054687447446105,-0.06764678550832146,0.0,0.0,0.0,0.0,0.0,0.0,0.0,0.0,0.0,0.07781110400494168,0.23752813049100835,-0.26032416977916684,0.0,0.0,0.0,0.0,0.0,0.0,0.0,0.0,0.0,0.0,0.0,0.0,0.0,0.0,0.0,1.0,-2.246452170124438,1.1011024394907025,-0.06434138415069272,0.0003222842390832,0.0038444525080331,-0.084692132033121,0.9963996984591412,1e-05,0.0,0.0,0.0,0.0,0.0,0.0,1e-05,0.0,0.0,0.0,0.0,0.0,0.0,1000000000000.0,0.0,0.0,0.0,0.0,0.0,0.0,1000000000000.0,0.0,0.0,0.0,0.0,0.0,0.0,1000000000000.0,0.0,0.0,0.0,0.0,0.0,0.0,0.001,0.2074170560961901,1.7791648204555643e-05,0.0,0.0,0.0,-0.0456359974374143,0.0,0.0,0.0,0.0,0.0,0.0,0.0,0.0,0.0,0.0,0.0,0.0,0.0,0.0,0.0,0.0,0.0,0.0,0.0,0.0,0.0,0.0,0.0,0.0,0.0,0.0,0.0,0.0,0.0,0.0,0.0,0.0,0.0,0.0,0.0,0.0,0.10167260235538393,-0.09320753077890326,0.034346976819789106,0.0,0.0,-0.0264271423220634
2079,166,967000000,166.967,base_footprint,0.014842868567170889,0.20764387839032966,-0.11596224498173083,0.953640745049071,0.0,0.0,0.0,0.0,0.0,0.0,0.0,0.0,0.0,-0.03301771275072148,0.03068636781189736,-0.06169387159306878,0.0,0.0,0.0,0.0,0.0,0.0,0.0,0.0,0.0,0.27064319449592117,-0.36759107541881275,0.11714298766465034,0.0,0.0,0.0,0.0,0.0,0.0,0.0,0.0,0.0,0.0,0.0,0.0,0.0,0.0,0.0,1.0,-1.9016651180917445,0.8095342146205913,0.04360085938603284,0.0003228108210329,0.0038398072760064,-0.0855468986881711,0.9963266933080196,1e-05,0.0,0.0,0.0,0.0,0.0,0.0,1e-05,0.0,0.0,0.0,0.0,0.0,0.0,1000000000000.0,0.0,0.0,0.0,0.0,0.0,0.0,1000000000000.0,0.0,0.0,0.0,0.0,0.0,0.0,1000000000000.0,0.0,0.0,0.0,0.0,0.0,0.0,0.001,0.2072129026584177,1.9675644821394445e-05,0.0,0.0,0.0,-0.0510425257728409,0.0,0.0,0.0,0.0,0.0,0.0,0.0,0.0,0.0,0.0,0.0,0.0,0.0,0.0,0.0,0.0,0.0,0.0,0.0,0.0,0.0,0.0,0.0,0.0,0.0,0.0,0.0,0.0,0.0,0.0,0.0,0.0,0.0,0.0,0.0,0.0,0.20066831939446284,-0.07168763187873754,-0.1359451922820437,0.0,0.0,-0.0264271423220634
2112,167,0,167.0,base_footprint,-0.06311785713766639,-0.03926656677862327,0.0031373229592510377,1.1520770242429814,0.0,0.0,0.0,0.0,0.0,0.0,0.0,0.0,0.0,0.0023743495051221247,-0.004359266705619584,-0.07863057353321098,0.0,0.0,0.0,0.0,0.0,0.0,0.0,0.0,0.0,-0.018892093561394326,-0.07151553804067405,0.09480830873486304,0.0,0.0,0.0,0.0,0.0,0.0,0.0,0.0,0.0,0.0,0.0,0.0,0.0,0.0,0.0,1.0,-1.951724019610488,1.0450745611687566,-0.09057792127312839,0.000325953635903,0.003839605455023,-0.0863833801915919,0.99625451708429,1e-05,0.0,0.0,0.0,0.0,0.0,0.0,1e-05,0.0,0.0,0.0,0.0,0.0,0.0,1000000000000.0,0.0,0.0,0.0,0.0,0.0,0.0,1000000000000.0,0.0,0.0,0.0,0.0,0.0,0.0,1000000000000.0,0.0,0.0,0.0,0.0,0.0,0.0,0.001,0.2072643463454252,1.977323427679312e-05,0.0,0.0,0.0,-0.0510642396883046,0.0,0.0,0.0,0.0,0.0,0.0,0.0,0.0,0.0,0.0,0.0,0.0,0.0,0.0,0.0,0.0,0.0,0.0,0.0,0.0,0.0,0.0,0.0,0.0,0.0,0.0,0.0,0.0,0.0,0.0,0.0,0.0,0.0,0.0,0.0,0.0,0.30211547811644807,0.02183840848832345,-0.03653974811295525,0.0,0.0,-0.0264271423220634
2146,167,34000000,167.034,base_footprint,-0.13403910369083533,-0.0202238621052968,-0.12069676146240647,1.0944704822146023,0.0,0.0,0.0,0.0,0.0,0.0,0.0,0.0,0.0,-0.06864677372716478,-0.02790488227116918,-0.06746236913130996,0.0,0.0,0.0,0.0,0.0,0.0,0.0,0.0,0.0,-0.009303972077777417,0.14685308084090515,-0.09052366540480142,0.0,0.0,0.0,0.0,0.0,0.0,0.0,0.0,0.0,0.0,0.0,0.0,0.0,0.0,0.0,1.0,-2.0213543093148036,0.8057818058908846,0.08530898454383178,0.0003285008240284,0.0038362433092056,-0.0875208193903274,0.996155249696415,1e-05,0.0,0.0,0.0,0.0,0.0,0.0,1e-05,0.0,0.0,0.0,0.0,0.0,0.0,1000000000000.0,0.0,0.0,0.0,0.0,0.0,0.0,1000000000000.0,0.0,0.0,0.0,0.0,0.0,0.0,1000000000000.0,0.0,0.0,0.0,0.0,0.0,0.0,0.001,0.2202102600740403,6.2752271087485045e-06,0.0,0.0,0.0,-0.0251946087438259,0.0,0.0,0.0,0.0,0.0,0.0,0.0,0.0,0.0,0.0,0.0,0.0,0.0,0.0,0.0,0.0,0.0,0.0,0.0,0.0,0.0,0.0,0.0,0.0,0.0,0.0,0.0,0.0,0.0,0.0,0.0,0.0,0.0,0.0,0.0,0.0,0.38015905463909244,-0.1256136936830578,0.06304662059832794,0.0,0.0,-0.0191932041198015
2179,167,67000000,167.067,base_footprint,0.11888940852631504,0.10259271950551174,-0.048537854508834355,0.9453076533020567,0.0,0.0,0.0,0.0,0.0,0.0,0.0,0.0,0.0,0.04051647336536456,-0.027373618764831506,-0.01736297256417304,0.0,0.0,0.0,0.0,0.0,0.0,0.0,0.0,0.0,-0.1908481703203311,-0.06517050026770682,-0.09108451577309248,0.0,0.0,0.0,0.0,0.0,0.0,0.0,0.0,0.0,0.0,0.0,0.0,0.0,0.0,0.0,1.0,-2.0616602198950016,0.6834008531951993,0.003683899939321412,0.000331461684233,0.0038392366354388,-0.0879673182236705,0.996115907572881,1e-05,0.0,0.0,0.0,0.0,0.0,0.0,1e-05,0.0,0.0,0.0,0.0,0.0,0.0,1000000000000.0,0.0,0.0,0.0,0.0,0.0,0.0,1000000000000.0,0.0,0.0,0.0,0.0,0.0,0.0,1000000000000.0,0.0,0.0,0.0,0.0,0.0,0.0,0.001,0.2202827938139783,8.784791819635429e-06,0.0,0.0,0.0,-0.0273983285206866,0.0,0.0,0.0,0.0,0.0,0.0,0.0,0.0,0.0,0.0,0.0,0.0,0.0,0.0,0.0,0.0,0.0,0.0,0.0,0.0,0.0,0.0,0.0,0.0,0.0,0.0,0.0,0.0,0.0,0.0,0.0,0.0,0.0,0.0,0.0,0.0,0.24118175805887385,-0.052053313875204045,-0.02540175397071256,0.0,0.0,-0.0191932041198015
2212,167,100000000,167.1,base_footprint,0.037324697802372686,-0.05505633919349432,-0.16715380775347502,1.0249377208587755,0.0,0.0,0.0,0.0,0.0,0.0,0.0,0.0,0.0,0.051583909925117036,0.04066437419332416,0.04584963873994738,0.0,0.0,0.0,0.0,0.0,0.0,0.0,0.0,0.0,0.05557871581603045,-0.016839972604654998,-0.1336306934806138,0.0,0.0,0.0,0.0,0.0,0.0,0.0,0.0,0.0,0.0,0.0,0.0,0.0,0.0,0.0,1.0,-2.1739105058979202,0.8620700877850047,0.2306455747167495,0.0003329184718105,0.0038395532193439,-0.0884164609089009,0.9960761398792324,1e-05,0.0,0.0,0.0,0.0,0.0,0.0,1e-05,0.0,0.0,0.0,0.0,0.0,0.0,1000000000000.0,0.0,0.0,0.0,0.0,0.0,0.0,1000000000000.0,0.0,0.0,0.0,0.0,0.0,0.0,1000000000000.0,0.0,0.0,0.0,0.0,0.0,0.0,0.001,0.2203262945851852,8.77990235295667e-06,0.0,0.0,0.0,-0.0275329838193627,0.0,0.0,0.0,0.0,0.0,0.0,0.0,0.0,0.0,0.0,0.0,0.0,0.0,0.0,0.0,0.0,0.0,0.0,0.0,0.0,0.0,0.0,0.0,0.0,0.0,0.0,0.0,0.0,0.0,0.0,0.0,0.0,0.0,0.0,0.0,0.0,0.28280423065972216,-0.06368905908269706,-0.0868759368653227,0.0,0.0,-0.0191932041198015
2246,167,134000000,167.134,base_footprint,0.0308201772806825,-0.04267293342584832,-0.1501475279439049,0.8326968037949325,0.0,0.0,0.0,0.0,0.0,0.0,0.0,0.0,0.0,0.012522227097648634,0.01755460208572595,-0.10596622300743798,0.0,0.0,0.0,0.0,0.0,0.0,0.0,0.0,0.0,0.3698730050918128,-0.08042801835730173,0.3171900664726391,0.0,0.0,0.0,0.0,0.0,0.0,0.0,0.0,0.0,0.0,0.0,0.0,0.0,0.0,0.0,1.0,-1.6621007756833368,0.732175542569278,-0.1748656063847144,0.0003338965773786,0.0038402183388635,-0.0887589896344117,0.9960456731472026,1e-05,0.0,0.0,0.0,0.0,0.0,0.0,1e-05,0.0,0.0,0.0,0.0,0.0,0.0,1000000000000.0,0.0,0.0,0.0,0.0,0.0,0.0,1000000000000.0,0.0,0.0,0.0,0.0,0.0,0.0,1000000000000.0,0.0,0.0,0.0,0.0,0.0,0.0,0.001,0.2202977688273733,5.496932090245932e-06,0.0,0.0,0.0,-0.0203240747905398,0.0,0.0,0.0,0.0,0.0,0.0,0.0,0.0,0.0,0.0,0.0,0.0,0.0,0.0,0.0,0.0,0.0,0.0,0.0,0.0,0.0,0.0,0.0,0.0,0.0,0.0,0.0,0.0,0.0,0.0,0.0,0.0,0.0,0.0,0.0,0.0,0.31023045980511826,0.15267466762508808,0.02948131424925894,0.0,0.0,-0.0117191551253199
2279,167,167000000,167.167,base_footprint,-0.08097422333917813,-0.006440516610109496,-0.12994502876344524,1.081325045957399,0.0,0.0,0.0,0.0,0.0,0.0,0.0,0.0,0.0,0.009540809709566745,0.08021800678416871,0.00895395547185391,0.0,0.0,0.0,0.0,0.0,0.0,0.0,0.0,0.0,-0.11286841322585521,-0.23894021055764977,-0.2601665170676676,0.0,0.0,0.0,0.0,0.0,0.0,0.0,0.0,0.0,0.0,0.0,0.0,0.0,0.0,0.0,1.0,-1.6397358314590145,0.9766725554563159,-0.17499391861525745,0.0003349511658812,0.003840887463351,-0.0890881080004379,0.9960162872182928,1e-05,0.0,0.0,0.0,0.0,0.0,0.0,1e-05,0.0,0.0,0.0,0.0,0.0,0.0,1000000000000.0,0.0,0.0,0.0,0.0,0.0,0.0,1000000000000.0,0.0,0.0,0.0,0.0,0.0,0.0,1000000000000.0,0.0,0.0,0.0,0.0,0.0,0.0,0.001,0.2202892946975179,3.356261489180501e-06,0.0,0.0,0.0,-0.0199242857463428,0.0,0.0,0.0,0.0,0.0,0.0,0.0,0.0,0.0,0.0,0.0,0.0,0.0,0.0,0.0,0.0,0.0,0.0,0.0,0.0,0.0,0.0,0.0,0.0,0.0,0.0,0.0,0.0,0.0,0.0,0.0,0.0,0.0,0.0,0.0,0.0,0.2606084403683292,0.15955616086528476,0.09494297821165032,0.0,0.0,-0.0117191551253199
2312,167,200000000,167.2,base_footprint,0.007789834318608241,-0.05857313659162924,-0.08266347015042233,0.9420952112738162,0.0,0.0,0.0,0.0,0.0,0.0,0.0,0.0,0.0,0.024770738672563034,0.017284812011628663,0.048096740298026276,0.0,0.0,0.0,0.0,0.0,0.0,0.0,0.0,0.0,-0.007929229083265623,0.08800699183637482,0.06472145739074062,0.0,0.0,0.0,0.0,0.0,0.0,0.0,0.0,0.0,0.0,0.0,0.0,0.0,0.0,0.0,1.0,-1.9217937771684253,1.017846333759131,0.16863010198788334,0.0003360461046531,0.0038415070131636,-0.0894095072195169,0.9959874848187836,1e-05,0.0,0.0,0.0,0.0,0.0,0.0,1e-05,0.0,0.0,0.0,0.0,0.0,0.0,1000000000000.0,0.0,0.0,0.0,0.0,0.0,0.0,1000000000000.0,0.0,0.0,0.0,0.0,0.0,0.0,1000000000000.0,0.0,0.0,0.0,0.0,0.0,0.0,0.001,0.220253540836126,7.517829687664346e-07,0.0,0.0,0.0,-0.0192358908534562,0.0,0.0,0.0,0.0,0.0,0.0,0.0,0.0,0.0,0.0,0.0,0.0,0.0,0.0,0.0,0.0,0.0,0.0,0.0,0.0,0.0,0.0,0.0,0.0,0.0,0.0,0.0,0.0,0.0,0.0,0.0,0.0,0.0,0.0,0.0,0.0,0.2925534172665669,0.03437252410310964,0.04760737932523078,0.0,0.0,-0.0117191551253199
2346,167,234000000,167.234,base_footprint,-0.06291553115364237,-0.14258924248987337,-0.04069867335117406,1.0563454027057138,0.0,0.0,0.0,0.0,0.0,0.0,0.0,0.0,0.0,-0.06034841927553184,-0.036469251459380535,-0.01460409723111867,0.0,0.0,0.0,0.0,0.0,0.0,0.0,0.0,0.0,-0.04766321184607267,0.021189547334386397,0.13999021798751363,0.0,0.0,0.0,0.0,0.0,0.0,0.0,0.0,0.0,0.0,0.0,0.0,0.0,0.0,0.0,1.0,-2.1775727011660555,0.9594499295400609,-0.09708275159745582,0.0003370855690474,0.0038422365766543,-0.0895831274788869,0.995971880558136,1e-05,0.0,0.0,0.0,0.0,0.0,0.0,1e-05,0.0,0.0,0.0,0.0,0.0,0.0,1000000000000.0,0.0,0.0,0.0,0.0,0.0,0.0,1000000000000.0,0.0,0.0,0.0,0.0,0.0,0.0,1000000000000.0,0.0,0.0,0.0,0.0,0.0,0.0,0.001,0.2197903086295085,8.673112913006042e-06,0.0,0.0,0.0,-0.0070354527368858,0.0,0.0,0.0,0.0,0.0,0.0,0.0,0.0,0.0,0.0,0.0,0.0,0.0,0.0,0.0,0.0,0.0,0.0,0.0,0.0,0.0,0.0,0.0,0.0,0.0,0.0,0.0,0.0,0.0,0.0,0.0,0.0,0.0,0.0,0.0,0.0,0.14092392950615282,-0.08001980426090863,-0.022791391426910425,0.0,0.0,-0.0052152001298964
2379,167,267000000,167.267,base_footprint,0.013711601907293543,0.0049815554884660865,-0.04861460586803199,0.9583301956197636,0.0,0.0,0.0,0.0,0.0,0.0,0.0,0.0,0.0,-0.023526012744467473,-0.06812096707467283,-0.0119023927442675,0.0,0.0,0.0,0.0,0.0,0.0,0.0,0.0,0.0,0.1424535108159721,0.20139792303965176,-0.18290629256214405,0.0,0.0,0.0,0.0,0.0,0.0,0.0,0.0,0.0,0.0,0.0,0.0,0.0,0.0,0.0,1.0,-1.5843902110900359,0.6981909035131644,0.1542872652578101,0.0003388053903805,0.0038413508092134,-0.0897143451609666,0.9959600722454726,1e-05,0.0,0.0,0.0,0.0,0.0,0.0,1e-05,0.0,0.0,0.0,0.0,0.0,0.0,1000000000000.0,0.0,0.0,0.0,0.0,0.0,0.0,1000000000000.0,0.0,0.0,0.0,0.0,0.0,0.0,1000000000000.0,0.0,0.0,0.0,0.0,0.0,0.0,0.001,0.2203732353617209,-1.7274942949313532e-06,0.0,0.0,0.0,-0.0134203341544733,0.0,0.0,0.0,0.0,0.0,0.0,0.0,0.0,0.0,0.0,0.0,0.0,0.0,0.0,0.0,0.0,0.0,0.0,0.0,0.0,0.0,0.0,0.0,0.0,0.0,0.0,0.0,0.0,0.0,0.0,0.0,0.0,0.0,0.0,0.0,0.0,0.13020817486345126,-0.11068675781623488,-0.02673975468022556,0.0,0.0,-0.0052152001298964
2412,167,300000000,167.3,base_footprint,0.061677965538094084,-0.1036258102706424,-0.12044898552893239,0.9626171312126355,0.0,0.0,0.0,0.0,0.0,0.0,0.0,0.0,0.0,-0.023829264153648486,-0.009673222006289174,-0.01541587865229425,0.0,0.0,0.0,0.0,0.0,0.0,0.0,0.0,0.0,0.09344583690434288,0.17543665893014987,0.1253347928667933,0.0,0.0,0.0,0.0,0.0,0.0,0.0,0.0,0.0,0.0,0.0,0.0,0.0,0.0,0.0,1.0,-2.213759493398011,0.8923723059970194,0.48746265674208794,0.0003398870783888,0.0038416159611272,-0.0898868232052656,0.9959445192768754,1e-05,0.0,0.0,0.0,0.0,0.0,0.0,1e-05,0.0,0.0,0.0,0.0,0.0,0.0,1000000000000.0,0.0,0.0,0.0,0.0,0.0,0.0,1000000000000.0,0.0,0.0,0.0,0.0,0.0,0.0,1000000000000.0,0.0,0.0,0.0,0.0,0.0,0.0,0.001,0.2200383656053368,1.228094415745007e-07,0.0,0.0,0.0,-0.0099369937896184,0.0,0.0,0.0,0.0,0.0,0.0,0.0,0.0,0.0,0.0,0.0,0.0,0.0,0.0,0.0,0.0,0.0,0.0,0.0,0.0,0.0,0.0,0.0,0.0,0.0,0.0,0.0,0.0,0.0,0.0,0.0,0.0,0.0,0.0,0.0,0.0,0.2313466937506471,-0.018197356363019182,0.1660113882464369,0.0,0.0,-0.0052152001298964
2446,167,334000000,167.334,base_footprint,-0.07168449808054715,-0.08314192617035228,-0.04950599258611938,0.9856780061294983,0.0,0.0,0.0,0.0,0.0,0.0,0.0,0.0,0.0,-0.022958111935280065,0.0293390751249004,-0.020858813068616554,0.0,0.0,0.0,0.0,0.0,0.0,0.0,0.0,0.0,-0.4227304571708707,0.18799684038298553,-0.17370157085320018,0.0,0.0,0.0,0.0,0.0,0.0,0.0,0.0,0.0,0.0,0.0,0.0,0.0,0.0,0.0,1.0,-1.9568056860319507,0.5620378728833205,-0.11809838928544819,0.0003412275821082,0.0038415347548807,-0.0899552445161022,0.995938341544552,1e-05,0.0,0.0,0.0,0.0,0.0,0.0,1e-05,0.0,0.0,0.0,0.0,0.0,0.0,1000000000000.0,0.0,0.0,0.0,0.0,0.0,0.0,1000000000000.0,0.0,0.0,0.0,0.0,0.0,0.0,1000000000000.0,0.0,0.0,0.0,0.0,0.0,0.0,0.001,0.2199355049464641,-6.899399679211049e-07,0.0,0.0,0.0,-0.0043033644650678,0.0,0.0,0.0,0.0,0.0,0.0,0.0,0.0,0.0,0.0,0.0,0.0,0.0,0.0,0.0,0.0,0.0,0.0,0.0,0.0,0.0,0.0,0.0,0.0,0.0,0.0,0.0,0.0,0.0,0.0,0.0,0.0,0.0,0.0,0.0,0.0,0.07615396074211706,-0.16804040802570155,0.025926928546511192,0.0,0.0,0.0100327963009476
2479,167,367000000,167.367,base_footprint,-0.16293540375546917,0.03663153958140976,-0.11414215335557304,0.9883567378458448,0.0,0.0,0.0,0.0,0.0,0.0,0.0,0.0,0.0,0.07824532197090195,-0.027788709853178325,-0.05173897289427593,0.0,0.0,0.0,0.0,0.0,0.0,0.0,0.0,0.0,0.06102464235404621,0.0903228400988064,-0.27270751481162564,0.0,0.0,0.0,0.0,0.0,0.0,0.0,0.0,0.0,0.0,0.0,0.0,0.0,0.0,0.0,1.0,-1.5516302962420419,0.682559602687843,0.17623073169791115,0.0003425853360212,0.0038422392431751,-0.090076903712055,0.9959273423551211,1e-05,0.0,0.0,0.0,0.0,0.0,0.0,1e-05,0.0,0.0,0.0,0.0,0.0,0.0,1000000000000.0,0.0,0.0,0.0,0.0,0.0,0.0,1000000000000.0,0.0,0.0,0.0,0.0,0.0,0.0,1000000000000.0,0.0,0.0,0.0,0.0,0.0,0.0,0.001,0.2192669869526571,2.0064981838638363e-05,0.0,0.0,0.0,-0.0145825804474294,0.0,0.0,0.0,0.0,0.0,0.0,0.0,0.0,0.0,0.0,0.0,0.0,0.0,0.0,0.0,0.0,0.0,0.0,0.0,0.0,0.0,0.0,0.0,0.0,0.0,0.0,0.0,0.0,0.0,0.0,0.0,0.0,0.0,0.0,0.0,0.0,0.31488196908403565,-0.12836997090964777,-0.03982891013766155,0.0,0.0,0.0100327963009476
2512,167,400000000,167.4,base_footprint,-0.07104202155139945,-0.12660066599966077,-0.09019782280588437,1.2150998776108322,0.0,0.0,0.0,0.0,0.0,0.0,0.0,0.0,0.0,0.07433863638249669,-0.03636447796907118,-0.06524879922699706,0.0,0.0,0.0,0.0,0.0,0.0,0.0,0.0,0.0,0.13615024578369087,-0.11396116071659486,0.01470156467117907,0.0,0.0,0.0,0.0,0.0,0.0,0.0,0.0,0.0,0.0,0.0,0.0,0.0,0.0,0.0,1.0,-1.8815334129974945,1.1333999300330517,0.30963724887454613,0.0003385051021636,0.0038354575421852,-0.0904940077505225,0.9958895567486318,1e-05,0.0,0.0,0.0,0.0,0.0,0.0,1e-05,0.0,0.0,0.0,0.0,0.0,0.0,1000000000000.0,0.0,0.0,0.0,0.0,0.0,0.0,1000000000000.0,0.0,0.0,0.0,0.0,0.0,0.0,1000000000000.0,0.0,0.0,0.0,0.0,0.0,0.0,0.001,0.2184458763890583,1.7560586598609762e-05,0.0,0.0,0.0,-0.0265013457335767,0.0,0.0,0.0,0.0,0.0,0.0,0.0,0.0,0.0,0.0,0.0,0.0,0.0,0.0,0.0,0.0,0.0,0.0,0.0,0.0,0.0,0.0,0.0,0.0,0.0,0.0,0.0,0.0,0.0,0.0,0.0,0.0,0.0,0.0,0.0,0.0,0.3233264296976528,-0.13074374730514896,0.13866347357794281,0.0,0.0,0.0100327963009476
2546,167,434000000,167.434,base_footprint,-0.015506366501625247,0.11526100109924513,-0.13681521441673583,0.9690127307578641,0.0,0.0,0.0,0.0,0.0,0.0,0.0,0.0,0.0,-0.00762948716904874,-0.02802653623405784,0.0177573210276271,0.0,0.0,0.0,0.0,0.0,0.0,0.0,0.0,0.0,-0.14814060802185797,-0.05681108914398895,-0.08156927636548758,0.0,0.0,0.0,0.0,0.0,0.0,0.0,0.0,0.0,0.0,0.0,0.0,0.0,0.0,0.0,1.0,-1.8320749151284215,0.8958591006356136,0.04539806712923402,0.0003416630707412,0.003838074045484,-0.090551989428168,0.9958842752371224,1e-05,0.0,0.0,0.0,0.0,0.0,0.0,1e-05,0.0,0.0,0.0,0.0,0.0,0.0,1000000000000.0,0.0,0.0,0.0,0.0,0.0,0.0,1000000000000.0,0.0,0.0,0.0,0.0,0.0,0.0,1000000000000.0,0.0,0.0,0.0,0.0,0.0,0.0,0.001,0.2199364239604348,-4.446093464977041e-06,0.0,0.0,0.0,0.0108829811397414,0.0,0.0,0.0,0.0,0.0,0.0,0.0,0.0,0.0,0.0,0.0,0.0,0.0,0.0,0.0,0.0,0.0,0.0,0.0,0.0,0.0,0.0,0.0,0.0,0.0,0.0,0.0,0.0,0.0,0.0,0.0,0.0,0.0,0.0,0.0,0.0,0.23437448074884698,-0.16552550245724262,0.08636473206587215,0.0,0.0,-0.0153348976746201
2579,167,467000000,167.467,base_footprint,-0.0562348335620979,0.07770029270068717,0.015110603728009486,1.1000664821746182,0.0,0.0,0.0,0.0,0.0,0.0,0.0,0.0,0.0,0.006763325430670737,-0.09730965369656597,-0.022823067370078165,0.0,0.0,0.0,0.0,0.0,0.0,0.0,0.0,0.0,-0.14259131312713663,-0.18558563983412432,-0.16112557462407837,0.0,0.0,0.0,0.0,0.0,0.0,0.0,0.0,0.0,0.0,0.0,0.0,0.0,0.0,0.0,1.0,-1.9160464013154321,1.1111153798736986,0.30598978211134925,0.0003411423661435,0.0038382746564722,-0.0903960645980039,0.9958984399901132,1e-05,0.0,0.0,0.0,0.0,0.0,0.0,1e-05,0.0,0.0,0.0,0.0,0.0,0.0,1000000000000.0,0.0,0.0,0.0,0.0,0.0,0.0,1000000000000.0,0.0,0.0,0.0,0.0,0.0,0.0,1000000000000.0,0.0,0.0,0.0,0.0,0.0,0.0,0.001,0.2198602563248524,-2.7364122385659102e-06,0.0,0.0,0.0,0.0092804974716303,0.0,0.0,0.0,0.0,0.0,0.0,0.0,0.0,0.0,0.0,0.0,0.0,0.0,0.0,0.0,0.0,0.0,0.0,0.0,0.0,0.0,0.0,0.0,0.0,0.0,0.0,0.0,0.0,0.0,0.0,0.0,0.0,0.0,0.0,0.0,0.0,0.29665127598777946,0.1168317139458529,-0.00279245556098538,0.0,0.0,-0.0153348976746201
2612,167,500000000,167.5,base_footprint,0.0005209932376091232,0.015311425847727229,0.05452245176031571,1.0216424082089075,0.0,0.0,0.0,0.0,0.0,0.0,0.0,0.0,0.0,0.03882445725408534,-0.02225360897158111,0.060350258366303075,0.0,0.0,0.0,0.0,0.0,0.0,0.0,0.0,0.0,0.06123547301669431,0.05096094419601559,0.04637694174991072,0.0,0.0,0.0,0.0,0.0,0.0,0.0,0.0,0.0,0.0,0.0,0.0,0.0,0.0,0.0,1.0,-1.9423022488148196,0.494075883392006,-0.1629391621223428,0.0003402744643844,0.0038382546960705,-0.0902427061016353,0.9959123485576584,1e-05,0.0,0.0,0.0,0.0,0.0,0.0,1e-05,0.0,0.0,0.0,0.0,0.0,0.0,1000000000000.0,0.0,0.0,0.0,0.0,0.0,0.0,1000000000000.0,0.0,0.0,0.0,0.0,0.0,0.0,1000000000000.0,0.0,0.0,0.0,0.0,0.0,0.0,0.001,0.219902502516131,-3.5824916338189627e-06,0.0,0.0,0.0,0.0091504765518206,0.0,0.0,0.0,0.0,0.0,0.0,0.0,0.0,0.0,0.0,0.0,0.0,0.0,0.0,0.0,0.0,0.0,0.0,0.0,0.0,0.0,0.0,0.0,0.0,0.0,0.0,0.0,0.0,0.0,0.0,0.0,0.0,0.0,0.0,0.0,0.0,0.3507462545417944,0.05959293150598806,-0.02322710207288752,0.0,0.0,-0.0153348976746201
2646,167,534000000,167.534,base_footprint,0.06708996625254939,0.053685634188032995,-0.04139899596424012,1.0039632000803471,0.0,0.0,0.0,0.0,0.0,0.0,0.0,0.0,0.0,0.023996840507089404,-0.015200757430140802,-0.08844514100285372,0.0,0.0,0.0,0.0,0.0,0.0,0.0,0.0,0.0,0.30753349522948176,-0.28893808020148914,-0.005578012338795114,0.0,0.0,0.0,0.0,0.0,0.0,0.0,0.0,0.0,0.0,0.0,0.0,0.0,0.0,0.0,1.0,-1.851896017221189,0.7901864965905383,0.12324287209863974,0.0003410093510758,0.003838429254911,-0.0905113625377054,0.995887967306085,1e-05,0.0,0.0,0.0,0.0,0.0,0.0,1e-05,0.0,0.0,0.0,0.0,0.0,0.0,1000000000000.0,0.0,0.0,0.0,0.0,0.0,0.0,1000000000000.0,0.0,0.0,0.0,0.0,0.0,0.0,1000000000000.0,0.0,0.0,0.0,0.0,0.0,0.0,0.001,0.2201773635109533,4.821762552585651e-06,0.0,0.0,0.0,-0.0163277927839836,0.0,0.0,0.0,0.0,0.0,0.0,0.0,0.0,0.0,0.0,0.0,0.0,0.0,0.0,0.0,0.0,0.0,0.0,0.0,0.0,0.0,0.0,0.0,0.0,0.0,0.0,0.0,0.0,0.0,0.0,0.0,0.0,0.0,0.0,0.0,0.0,0.2208915886708946,0.14691010544056454,0.022842905527280202,0.0,0.0,-0.0246295910328626
2679,167,567000000,167.567,base_footprint,-0.05106376748005716,0.012171057099323519,-0.06261343733393573,0.8956184007412994,0.0,0.0,0.0,0.0,0.0,0.0,0.0,0.0,0.0,0.06852013786949042,0.019761120339304387,0.09873732321983916,0.0,0.0,0.0,0.0,0.0,0.0,0.0,0.0,0.0,0.04046880185487081,-0.4117581927123031,0.2149826697227667,0.0,0.0,0.0,0.0,0.0,0.0,0.0,0.0,0.0,0.0,0.0,0.0,0.0,0.0,0.0,1.0,-2.1837151973446414,0.9880184928294127,-0.23542631626973962,0.000341729393049,0.003838737373923,-0.0907780393528875,0.9958636929257144,1e-05,0.0,0.0,0.0,0.0,0.0,0.0,1e-05,0.0,0.0,0.0,0.0,0.0,0.0,1000000000000.0,0.0,0.0,0.0,0.0,0.0,0.0,1000000000000.0,0.0,0.0,0.0,0.0,0.0,0.0,1000000000000.0,0.0,0.0,0.0,0.0,0.0,0.0,0.001,0.2202187646361705,4.209288178402826e-06,0.0,0.0,0.0,-0.0164244505694254,0.0,0.0,0.0,0.0,0.0,0.0,0.0,0.0,0.0,0.0,0.0,0.0,0.0,0.0,0.0,0.0,0.0,0.0,0.0,0.0,0.0,0.0,0.0,0.0,0.0,0.0,0.0,0.0,0.0,0.0,0.0,0.0,0.0,0.0,0.0,0.0,0.19426958565989658,-0.004364893044377773,0.1116998489068599,0.0,0.0,-0.0246295910328626
2712,167,600000000,167.6,base_footprint,-0.026655657216303474,0.0176044505260829,-0.1560578293156008,0.9381113340148367,0.0,0.0,0.0,0.0,0.0,0.0,0.0,0.0,0.0,0.04790918629074296,0.11578559490912117,-0.0349413947139111,0.0,0.0,0.0,0.0,0.0,0.0,0.0,0.0,0.0,0.1812590505757102,-0.05021859464251712,-0.05817457970782093,0.0,0.0,0.0,0.0,0.0,0.0,0.0,0.0,0.0,0.0,0.0,0.0,0.0,0.0,0.0,1.0,-1.9996556614004013,0.912758428477375,-0.4034344080674425,0.0003424621351818,0.0038393413592092,-0.0910462623712174,0.9958392040313764,1e-05,0.0,0.0,0.0,0.0,0.0,0.0,1e-05,0.0,0.0,0.0,0.0,0.0,0.0,1000000000000.0,0.0,0.0,0.0,0.0,0.0,0.0,1000000000000.0,0.0,0.0,0.0,0.0,0.0,0.0,1000000000000.0,0.0,0.0,0.0,0.0,0.0,0.0,0.001,0.2202577872439913,3.83200784204174e-06,0.0,0.0,0.0,-0.0164716694348149,0.0,0.0,0.0,0.0,0.0,0.0,0.0,0.0,0.0,0.0,0.0,0.0,0.0,0.0,0.0,0.0,0.0,0.0,0.0,0.0,0.0,0.0,0.0,0.0,0.0,0.0,0.0,0.0,0.0,0.0,0.0,0.0,0.0,0.0,0.0,0.0,0.2790426785159423,0.0015194564349813593,-0.07558873330556222,0.0,0.0,-0.0246295910328626
2746,167,634000000,167.634,base_footprint,0.09173392310790088,-0.07269789086958772,-0.1648300095598905,0.973241206169885,0.0,0.0,0.0,0.0,0.0,0.0,0.0,0.0,0.0,-0.06364862600934487,0.015404263041144568,0.0017157768346307348,0.0,0.0,0.0,0.0,0.0,0.0,0.0,0.0,0.0,-0.2572803822970078,0.4875701962815847,-0.400198084339867,0.0,0.0,0.0,0.0,0.0,0.0,0.0,0.0,0.0,0.0,0.0,0.0,0.0,0.0,0.0,1.0,-2.026961668895823,0.6003960626883118,-0.029402624713746054,0.0003450014364546,0.0038402279802106,-0.0917696925755344,0.9957727939382864,1e-05,0.0,0.0,0.0,0.0,0.0,0.0,1e-05,0.0,0.0,0.0,0.0,0.0,0.0,1000000000000.0,0.0,0.0,0.0,0.0,0.0,0.0,1000000000000.0,0.0,0.0,0.0,0.0,0.0,0.0,1000000000000.0,0.0,0.0,0.0,0.0,0.0,0.0,0.001,0.2071742784222036,7.8972615904227e-06,0.0,0.0,0.0,-0.0333420348017801,0.0,0.0,0.0,0.0,0.0,0.0,0.0,0.0,0.0,0.0,0.0,0.0,0.0,0.0,0.0,0.0,0.0,0.0,0.0,0.0,0.0,0.0,0.0,0.0,0.0,0.0,0.0,0.0,0.0,0.0,0.0,0.0,0.0,0.0,0.0,0.0,0.0700701355502591,0.12835991800927646,0.08210563018317073,0.0,0.0,0.0162458010017871
2779,167,667000000,167.667,base_footprint,-0.049034171855061086,-0.08915535233365106,-0.09021272077829073,0.9552593058996677,0.0,0.0,0.0,0.0,0.0,0.0,0.0,0.0,0.0,-0.016540576578064736,-0.09012503590962553,-0.020366443833099837,0.0,0.0,0.0,0.0,0.0,0.0,0.0,0.0,0.0,-0.32604596111261397,0.20155449500571943,0.31080429355009126,0.0,0.0,0.0,0.0,0.0,0.0,0.0,0.0,0.0,0.0,0.0,0.0,0.0,0.0,0.0,1.0,-1.7792254554601994,0.6959631875338719,-0.25077478675106724,0.0003465767978449,0.003840359176295,-0.0921829663350661,0.9957346193859028,1e-05,0.0,0.0,0.0,0.0,0.0,0.0,1e-05,0.0,0.0,0.0,0.0,0.0,0.0,1000000000000.0,0.0,0.0,0.0,0.0,0.0,0.0,1000000000000.0,0.0,0.0,0.0,0.0,0.0,0.0,1000000000000.0,0.0,0.0,0.0,0.0,0.0,0.0,0.001,0.2071582135044078,4.915644228151161e-06,0.0,0.0,0.0,-0.024779830469411,0.0,0.0,0.0,0.0,0.0,0.0,0.0,0.0,0.0,0.0,0.0,0.0,0.0,0.0,0.0,0.0,0.0,0.0,0.0,0.0,0.0,0.0,0.0,0.0,0.0,0.0,0.0,0.0,0.0,0.0,0.0,0.0,0.0,0.0,0.0,0.0,-0.08465188828252596,0.05920190610477819,-0.03618199078036532,0.0,0.0,0.0162458010017871
2812,167,700000000,167.7,base_footprint,-0.001414997581728594,0.04470164741736807,-0.11231018513207236,1.1248705811919169,0.0,0.0,0.0,0.0,0.0,0.0,0.0,0.0,0.0,0.03353551258632226,-0.041009729053268225,-0.06693069327417699,0.0,0.0,0.0,0.0,0.0,0.0,0.0,0.0,0.0,0.15889885085832192,-0.06339406227729091,-0.2630820585024386,0.0,0.0,0.0,0.0,0.0,0.0,0.0,0.0,0.0,0.0,0.0,0.0,0.0,0.0,0.0,1.0,-1.6047660047200267,0.8471787557738301,0.09370116765231093,0.0003483624916765,0.0038410665833703,-0.0925826295866302,0.9956975351731576,1e-05,0.0,0.0,0.0,0.0,0.0,0.0,1e-05,0.0,0.0,0.0,0.0,0.0,0.0,1000000000000.0,0.0,0.0,0.0,0.0,0.0,0.0,1000000000000.0,0.0,0.0,0.0,0.0,0.0,0.0,1000000000000.0,0.0,0.0,0.0,0.0,0.0,0.0,0.001,0.2070579674669448,2.8997024591116694e-05,0.0,0.0,0.0,-0.0234195307108923,0.0,0.0,0.0,0.0,0.0,0.0,0.0,0.0,0.0,0.0,0.0,0.0,0.0,0.0,0.0,0.0,0.0,0.0,0.0,0.0,0.0,0.0,0.0,0.0,0.0,0.0,0.0,0.0,0.0,0.0,0.0,0.0,0.0,0.0,0.0,0.0,0.2735620184080195,-0.004959498618768514,0.16957044580568081,0.0,0.0,0.0162458010017871
2846,167,734000000,167.734,base_footprint,0.03833048881284387,0.04458806358773758,-0.11835405890231994,1.104879293850817,0.0,0.0,0.0,0.0,0.0,0.0,0.0,0.0,0.0,0.003635657824124547,-0.04003623369098475,0.07673451868990115,0.0,0.0,0.0,0.0,0.0,0.0,0.0,0.0,0.0,-0.032443210109413534,-0.0986844056462834,0.26747551081224324,0.0,0.0,0.0,0.0,0.0,0.0,0.0,0.0,0.0,0.0,0.0,0.0,0.0,0.0,0.0,1.0,-1.758147474245213,0.8408865168139078,0.04801407418684949,0.0003497381344197,0.0038344050082209,-0.0916206117053265,0.9957865426547056,1e-05,0.0,0.0,0.0,0.0,0.0,0.0,1e-05,0.0,0.0,0.0,0.0,0.0,0.0,1000000000000.0,0.0,0.0,0.0,0.0,0.0,0.0,1000000000000.0,0.0,0.0,0.0,0.0,0.0,0.0,1000000000000.0,0.0,0.0,0.0,0.0,0.0,0.0,0.001,0.2136309246982388,-2.7783658442186165e-05,0.0,0.0,0.0,0.0873213008975619,0.0,0.0,0.0,0.0,0.0,0.0,0.0,0.0,0.0,0.0,0.0,0.0,0.0,0.0,0.0,0.0,0.0,0.0,0.0,0.0,0.0,0.0,0.0,0.0,0.0,0.0,0.0,0.0,0.0,0.0,0.0,0.0,0.0,0.0,0.0,0.0,0.1726582273589755,-0.14354060481897485,-0.04427708879983022,0.0,0.0,-0.0523788966238498
2879,167,767000000,167.767,base_footprint,-0.007813134519078333,0.02723528767255159,-0.17047313124154923,1.0450138326788088,0.0,0.0,0.0,0.0,0.0,0.0,0.0,0.0,0.0,-0.05633799921462789,0.11526031434074559,0.021075724654504763,0.0,0.0,0.0,0.0,0.0,0.0,0.0,0.0,0.0,0.324200985962131,-0.28917093740675426,0.26719970193847914,0.0,0.0,0.0,0.0,0.0,0.0,0.0,0.0,0.0,0.0,0.0,0.0,0.0,0.0,0.0,1.0,-1.955685418209404,1.113287011946133,-0.23517019155346577,0.0003462313832743,0.0038347604350747,-0.0905495251922024,0.9958845104848764,1e-05,0.0,0.0,0.0,0.0,0.0,0.0,1e-05,0.0,0.0,0.0,0.0,0.0,0.0,1000000000000.0,0.0,0.0,0.0,0.0,0.0,0.0,1000000000000.0,0.0,0.0,0.0,0.0,0.0,0.0,1000000000000.0,0.0,0.0,0.0,0.0,0.0,0.0,0.001,0.2179881106930157,-6.5885888128752734e-06,0.0,0.0,0.0,0.0378775062399331,0.0,0.0,0.0,0.0,0.0,0.0,0.0,0.0,0.0,0.0,0.0,0.0,0.0,0.0,0.0,0.0,0.0,0.0,0.0,0.0,0.0,0.0,0.0,0.0,0.0,0.0,0.0,0.0,0.0,0.0,0.0,0.0,0.0,0.0,0.0,0.0,0.29520591334372503,0.14941420672500838,0.06975848141486964,0.0,0.0,-0.0523788966238498
2912,167,800000000,167.8,base_footprint,0.07122100620802044,0.01763327988735117,-0.05082855852024983,0.9969974718226561,0.0,0.0,0.0,0.0,0.0,0.0,0.0,0.0,0.0,0.07964225772314257,-0.03396844484506112,-0.011533987227750033,0.0,0.0,0.0,0.0,0.0,0.0,0.0,0.0,0.0,-0.1255082207666438,0.10027431462129056,-0.11430506111704847,0.0,0.0,0.0,0.0,0.0,0.0,0.0,0.0,0.0,0.0,0.0,0.0,0.0,0.0,0.0,1.0,-2.164308435621132,0.8482602481825237,-0.12259093523702877,0.0003421626677796,0.0038413598659818,-0.0902229702020274,0.9959141240724588,1e-05,0.0,0.0,0.0,0.0,0.0,0.0,1e-05,0.0,0.0,0.0,0.0,0.0,0.0,1000000000000.0,0.0,0.0,0.0,0.0,0.0,0.0,1000000000000.0,0.0,0.0,0.0,0.0,0.0,0.0,1000000000000.0,0.0,0.0,0.0,0.0,0.0,0.0,0.001,0.2197775027359158,3.679256448063661e-06,0.0,0.0,0.0,0.0174205421313613,0.0,0.0,0.0,0.0,0.0,0.0,0.0,0.0,0.0,0.0,0.0,0.0,0.0,0.0,0.0,0.0,0.0,0.0,0.0,0.0,0.0,0.0,0.0,0.0,0.0,0.0,0.0,0.0,0.0,0.0,0.0,0.0,0.0,0.0,0.0,0.0,0.4167891480796989,-0.0925641333625336,-0.0070387931725576685,0.0,0.0,-0.0523788966238498
2946,167,834000000,167.834,base_footprint,-0.009353784672084559,0.023679729189278464,-0.24625157088648814,0.9410615764117409,0.0,0.0,0.0,0.0,0.0,0.0,0.0,0.0,0.0,-0.024244213568528794,-0.044428046891489596,-0.011369152104752783,0.0,0.0,0.0,0.0,0.0,0.0,0.0,0.0,0.0,0.06716076035198194,-0.04144931869554462,-0.09429289734896416,0.0,0.0,0.0,0.0,0.0,0.0,0.0,0.0,0.0,0.0,0.0,0.0,0.0,0.0,0.0,1.0,-1.7589708632556824,0.34503298745728617,-0.08077134599749389,0.0003461548305106,0.0038418115017628,-0.0910058657096473,0.9958428857343188,1e-05,0.0,0.0,0.0,0.0,0.0,0.0,1e-05,0.0,0.0,0.0,0.0,0.0,0.0,1000000000000.0,0.0,0.0,0.0,0.0,0.0,0.0,1000000000000.0,0.0,0.0,0.0,0.0,0.0,0.0,1000000000000.0,0.0,0.0,0.0,0.0,0.0,0.0,0.001,0.2199702198024101,4.447189125755119e-05,0.0,0.0,0.0,-0.0576804660666241,0.0,0.0,0.0,0.0,0.0,0.0,0.0,0.0,0.0,0.0,0.0,0.0,0.0,0.0,0.0,0.0,0.0,0.0,0.0,0.0,0.0,0.0,0.0,0.0,0.0,0.0,0.0,0.0,0.0,0.0,0.0,0.0,0.0,0.0,0.0,0.0,0.2328618968220239,0.04311065423493003,-0.0054790402438993505,0.0,0.0,-0.0378102771937847
2979,167,867000000,167.867,base_footprint,0.07700365833565662,-0.06585381975841997,-0.05255596804642779,1.1228230850432275,0.0,0.0,0.0,0.0,0.0,0.0,0.0,0.0,0.0,-0.02091279110481952,-0.038750972960713156,-0.0511803046731682,0.0,0.0,0.0,0.0,0.0,0.0,0.0,0.0,0.0,-0.3133729914232632,-0.20057333718681816,-0.060431020075937494,0.0,0.0,0.0,0.0,0.0,0.0,0.0,0.0,0.0,0.0,0.0,0.0,0.0,0.0,0.0,1.0,-1.8250434127327253,0.6824514436067582,-0.11714076490301861,0.0003451529748012,0.0038353400565901,-0.0921493178025309,0.9957377537607996,1e-05,0.0,0.0,0.0,0.0,0.0,0.0,1e-05,0.0,0.0,0.0,0.0,0.0,0.0,1000000000000.0,0.0,0.0,0.0,0.0,0.0,0.0,1000000000000.0,0.0,0.0,0.0,0.0,0.0,0.0,1000000000000.0,0.0,0.0,0.0,0.0,0.0,0.0,0.001,0.2185040342504105,4.322661187340648e-05,0.0,0.0,0.0,-0.0788359167967003,0.0,0.0,0.0,0.0,0.0,0.0,0.0,0.0,0.0,0.0,0.0,0.0,0.0,0.0,0.0,0.0,0.0,0.0,0.0,0.0,0.0,0.0,0.0,0.0,0.0,0.0,0.0,0.0,0.0,0.0,0.0,0.0,0.0,0.0,0.0,0.0,0.2965176581832908,0.0002306051387659852,-0.023840949506902166,0.0,0.0,-0.0378102771937847
3012,167,900000000,167.9,base_footprint,-0.005712898278426145,0.01758217083536824,-0.19464861071549333,0.8730387818949159,0.0,0.0,0.0,0.0,0.0,0.0,0.0,0.0,0.0,-0.06492792076073549,-0.0709722508402153,-0.0024843988676685053,0.0,0.0,0.0,0.0,0.0,0.0,0.0,0.0,0.0,0.005383606261347047,0.04386072725139035,0.3965071773868053,0.0,0.0,0.0,0.0,0.0,0.0,0.0,0.0,0.0,0.0,0.0,0.0,0.0,0.0,0.0,1.0,-1.7634408533377535,0.8046316818371132,-0.0673184104347446,0.0003495686452348,0.0038341861169001,-0.0933480671672342,0.9956260920519936,1e-05,0.0,0.0,0.0,0.0,0.0,0.0,1e-05,0.0,0.0,0.0,0.0,0.0,0.0,1000000000000.0,0.0,0.0,0.0,0.0,0.0,0.0,1000000000000.0,0.0,0.0,0.0,0.0,0.0,0.0,1000000000000.0,0.0,0.0,0.0,0.0,0.0,0.0,0.001,0.2198118356873716,2.065592344794448e-05,0.0,0.0,0.0,-0.0607629876608327,0.0,0.0,0.0,0.0,0.0,0.0,0.0,0.0,0.0,0.0,0.0,0.0,0.0,0.0,0.0,0.0,0.0,0.0,0.0,0.0,0.0,0.0,0.0,0.0,0.0,0.0,0.0,0.0,0.0,0.0,0.0,0.0,0.0,0.0,0.0,0.0,0.2654867535568857,0.06435537774397819,0.006498159264369791,0.0,0.0,-0.0378102771937847
3046,167,934000000,167.934,base_footprint,-0.007132233513757584,-0.06483377601978421,-0.11534222145327819,1.0790557313792586,0.0,0.0,0.0,0.0,0.0,0.0,0.0,0.0,0.0,0.0006109095856398689,0.03158877632254035,0.030979311383402916,0.0,0.0,0.0,0.0,0.0,0.0,0.0,0.0,0.0,-0.08618998050956328,0.24725945538530897,-0.12131958361427458,0.0,0.0,0.0,0.0,0.0,0.0,0.0,0.0,0.0,0.0,0.0,0.0,0.0,0.0,0.0,1.0,-1.7384046824600912,1.2657463837895717,0.17044540745757253,0.0003554161700433,0.0038373360151237,-0.0940318824035474,0.9955617276810608,1e-05,0.0,0.0,0.0,0.0,0.0,0.0,1e-05,0.0,0.0,0.0,0.0,0.0,0.0,1000000000000.0,0.0,0.0,0.0,0.0,0.0,0.0,1000000000000.0,0.0,0.0,0.0,0.0,0.0,0.0,1000000000000.0,0.0,0.0,0.0,0.0,0.0,0.0,0.001,0.2202869962584604,1.3944467177513796e-05,0.0,0.0,0.0,-0.0384489338742969,0.0,0.0,0.0,0.0,0.0,0.0,0.0,0.0,0.0,0.0,0.0,0.0,0.0,0.0,0.0,0.0,0.0,0.0,0.0,0.0,0.0,0.0,0.0,0.0,0.0,0.0,0.0,0.0,0.0,0.0,0.0,0.0,0.0,0.0,0.0,0.0,0.27353460178063044,-0.11545666393879811,-0.08195718454412611,0.0,0.0,-0.0304698068648576
3079,167,967000000,167.967,base_footprint,-0.058513481727607404,0.03047674195690972,-0.07871510291261835,0.9298488276657599,0.0,0.0,0.0,0.0,0.0,0.0,0.0,0.0,0.0,-0.03586612602070252,-0.007621316129515585,-0.013391195079679456,0.0,0.0,0.0,0.0,0.0,0.0,0.0,0.0,0.0,-0.3697907469902173,-0.2264087218419552,-0.07428799179133568,0.0,0.0,0.0,0.0,0.0,0.0,0.0,0.0,0.0,0.0,0.0,0.0,0.0,0.0,0.0,1.0,-1.6533844956425219,1.0406646847751924,-0.10191157794298566,0.0003574239684819,0.0038367911387906,-0.0946644311417892,0.9955017813939186,1e-05,0.0,0.0,0.0,0.0,0.0,0.0,1e-05,0.0,0.0,0.0,0.0,0.0,0.0,1000000000000.0,0.0,0.0,0.0,0.0,0.0,0.0,1000000000000.0,0.0,0.0,0.0,0.0,0.0,0.0,1000000000000.0,0.0,0.0,0.0,0.0,0.0,0.0,0.001,0.2203223556933504,1.5462708886089527e-05,0.0,0.0,0.0,-0.0386749278877317,0.0,0.0,0.0,0.0,0.0,0.0,0.0,0.0,0.0,0.0,0.0,0.0,0.0,0.0,0.0,0.0,0.0,0.0,0.0,0.0,0.0,0.0,0.0,0.0,0.0,0.0,0.0,0.0,0.0,0.0,0.0,0.0,0.0,0.0,0.0,0.0,0.0331233773324143,-0.1431035163600047,0.0012669345293269954,0.0,0.0,-0.0304698068648576
3112,168,0,168.0,base_footprint,-0.1259856751638939,0.02362278499397465,-0.11777972367875192,1.061464710257738,0.0,0.0,0.0,0.0,0.0,0.0,0.0,0.0,0.0,-0.06229085287146459,0.047590019533813845,0.00929312406802061,0.0,0.0,0.0,0.0,0.0,0.0,0.0,0.0,0.0,0.42267299499425487,0.07656830687062902,-0.17006792662444406,0.0,0.0,0.0,0.0,0.0,0.0,0.0,0.0,0.0,0.0,0.0,0.0,0.0,0.0,0.0,1.0,-1.6254932615300082,1.1190847498182726,0.008657575068077352,0.0003595480892697,0.0038366854515955,-0.0952985328048889,0.9954412791396348,1e-05,0.0,0.0,0.0,0.0,0.0,0.0,1e-05,0.0,0.0,0.0,0.0,0.0,0.0,1000000000000.0,0.0,0.0,0.0,0.0,0.0,0.0,1000000000000.0,0.0,0.0,0.0,0.0,0.0,0.0,1000000000000.0,0.0,0.0,0.0,0.0,0.0,0.0,0.001,0.220365950988052,1.396666159159815e-05,0.0,0.0,0.0,-0.0388116573399089,0.0,0.0,0.0,0.0,0.0,0.0,0.0,0.0,0.0,0.0,0.0,0.0,0.0,0.0,0.0,0.0,0.0,0.0,0.0,0.0,0.0,0.0,0.0,0.0,0.0,0.0,0.0,0.0,0.0,0.0,0.0,0.0,0.0,0.0,0.0,0.0,0.3673411097083644,-0.07405949458396283,-0.126625815311214,0.0,0.0,-0.0304698068648576
3146,168,34000000,168.034,base_footprint,-0.1435945092715395,-0.05473020895462332,-0.060842846230842317,1.0023562173948881,0.0,0.0,0.0,0.0,0.0,0.0,0.0,0.0,0.0,-0.05519998162796489,-0.05094666448609579,-0.007589574576715212,0.0,0.0,0.0,0.0,0.0,0.0,0.0,0.0,0.0,-0.09459151183542383,-0.3438342396472385,-0.39384060080294364,0.0,0.0,0.0,0.0,0.0,0.0,0.0,0.0,0.0,0.0,0.0,0.0,0.0,0.0,0.0,1.0,-1.489346907957993,0.9497440810845963,0.18646351715784518,0.0003612589175226,0.003836875833783,-0.0958298952099683,0.9953902647001712,1e-05,0.0,0.0,0.0,0.0,0.0,0.0,1e-05,0.0,0.0,0.0,0.0,0.0,0.0,1000000000000.0,0.0,0.0,0.0,0.0,0.0,0.0,1000000000000.0,0.0,0.0,0.0,0.0,0.0,0.0,1000000000000.0,0.0,0.0,0.0,0.0,0.0,0.0,0.001,0.2203428179073384,9.732436832207704e-06,0.0,0.0,0.0,-0.031581269376472,0.0,0.0,0.0,0.0,0.0,0.0,0.0,0.0,0.0,0.0,0.0,0.0,0.0,0.0,0.0,0.0,0.0,0.0,0.0,0.0,0.0,0.0,0.0,0.0,0.0,0.0,0.0,0.0,0.0,0.0,0.0,0.0,0.0,0.0,0.0,0.0,0.33409348547624307,0.03738526918728507,0.014152245204625189,0.0,0.0,0.0257660876959562
3179,168,67000000,168.067,base_footprint,-0.07794292554638341,0.005775888922836312,-0.13004116222411305,0.9711104194496838,0.0,0.0,0.0,0.0,0.0,0.0,0.0,0.0,0.0,-0.02195454157423777,-0.02183998153055771,0.019541042157568154,0.0,0.0,0.0,0.0,0.0,0.0,0.0,0.0,0.0,0.20791317966823597,-0.4422535365735257,-0.15194248967120577,0.0,0.0,0.0,0.0,0.0,0.0,0.0,0.0,0.0,0.0,0.0,0.0,0.0,0.0,0.0,1.0,-1.7837465489532203,0.9031353108768366,0.16377192236281515,0.0003629459294491,0.003837306144817,-0.0963469293725692,0.9953403501075804,1e-05,0.0,0.0,0.0,0.0,0.0,0.0,1e-05,0.0,0.0,0.0,0.0,0.0,0.0,1000000000000.0,0.0,0.0,0.0,0.0,0.0,0.0,1000000000000.0,0.0,0.0,0.0,0.0,0.0,0.0,1000000000000.0,0.0,0.0,0.0,0.0,0.0,0.0,0.001,0.2203848064170972,9.61190032813114e-06,0.0,0.0,0.0,-0.0316698118652971,0.0,0.0,0.0,0.0,0.0,0.0,0.0,0.0,0.0,0.0,0.0,0.0,0.0,0.0,0.0,0.0,0.0,0.0,0.0,0.0,0.0,0.0,0.0,0.0,0.0,0.0,0.0,0.0,0.0,0.0,0.0,0.0,0.0,0.0,0.0,0.0,0.3916724277510931,-0.15056497297131521,0.17335984648740077,0.0,0.0,0.0257660876959562
3212,168,100000000,168.1,base_footprint,0.041356905482500046,0.027514101990495688,0.05634175717097645,1.0330326095699045,0.0,0.0,0.0,0.0,0.0,0.0,0.0,0.0,0.0,0.13567569596378715,-0.017815241701106935,-0.05900867227352401,0.0,0.0,0.0,0.0,0.0,0.0,0.0,0.0,0.0,-0.044992424364670894,-0.10365800894405935,0.17990701946895904,0.0,0.0,0.0,0.0,0.0,0.0,0.0,0.0,0.0,0.0,0.0,0.0,0.0,0.0,0.0,1.0,-1.7440020592686973,1.0766873091347882,-0.020070550881350496,0.000364658660083,0.0038378782839278,-0.0968627140615268,0.9952902854639818,1e-05,0.0,0.0,0.0,0.0,0.0,0.0,1e-05,0.0,0.0,0.0,0.0,0.0,0.0,1000000000000.0,0.0,0.0,0.0,0.0,0.0,0.0,1000000000000.0,0.0,0.0,0.0,0.0,0.0,0.0,1000000000000.0,0.0,0.0,0.0,0.0,0.0,0.0,0.001,0.2203862354684614,7.860982477854439e-06,0.0,0.0,0.0,-0.0313602656482644,0.0,0.0,0.0,0.0,0.0,0.0,0.0,0.0,0.0,0.0,0.0,0.0,0.0,0.0,0.0,0.0,0.0,0.0,0.0,0.0,0.0,0.0,0.0,0.0,0.0,0.0,0.0,0.0,0.0,0.0,0.0,0.0,0.0,0.0,0.0,0.0,0.11560583906736104,0.02873033607666899,0.12917089874840357,0.0,0.0,0.0257660876959562
3246,168,134000000,168.134,base_footprint,0.05979421283114275,0.0911700249533797,-0.2219082151941072,1.0243483341314519,0.0,0.0,0.0,0.0,0.0,0.0,0.0,0.0,0.0,-0.04477478051393191,0.020067613253085304,0.0431331853562178,0.0,0.0,0.0,0.0,0.0,0.0,0.0,0.0,0.0,0.33196006454574123,-0.36149075806632774,0.11476431695821608,0.0,0.0,0.0,0.0,0.0,0.0,0.0,0.0,0.0,0.0,0.0,0.0,0.0,0.0,0.0,1.0,-1.8586969178729167,0.7837313401260113,-0.2759363519241693,0.0003633970978765,0.0038381928608201,-0.0965109677821005,0.9953244542941136,1e-05,0.0,0.0,0.0,0.0,0.0,0.0,1e-05,0.0,0.0,0.0,0.0,0.0,0.0,1000000000000.0,0.0,0.0,0.0,0.0,0.0,0.0,1000000000000.0,0.0,0.0,0.0,0.0,0.0,0.0,1000000000000.0,0.0,0.0,0.0,0.0,0.0,0.0,0.001,0.2199336180113246,-1.9559900229164373e-05,0.0,0.0,0.0,0.0246151302275746,0.0,0.0,0.0,0.0,0.0,0.0,0.0,0.0,0.0,0.0,0.0,0.0,0.0,0.0,0.0,0.0,0.0,0.0,0.0,0.0,0.0,0.0,0.0,0.0,0.0,0.0,0.0,0.0,0.0,0.0,0.0,0.0,0.0,0.0,0.0,0.0,0.15806176947760597,-0.05354667085997065,0.07980113404405796,0.0,0.0,0.0
3279,168,167000000,168.167,base_footprint,0.060848507378486336,-0.03253137327853144,-0.04657812186470406,0.986399814976094,0.0,0.0,0.0,0.0,0.0,0.0,0.0,0.0,0.0,-0.04506126970860698,-0.06164663683481558,0.07865688801334436,0.0,0.0,0.0,0.0,0.0,0.0,0.0,0.0,0.0,-0.11006569002319348,-0.0807299371320892,-0.048487591858967324,0.0,0.0,0.0,0.0,0.0,0.0,0.0,0.0,0.0,0.0,0.0,0.0,0.0,0.0,0.0,1.0,-2.0652141702277,0.7489122485563713,-0.011687544507836045,0.0003619252278334,0.0038395244104245,-0.0961042853920005,0.9953637995184094,1e-05,0.0,0.0,0.0,0.0,0.0,0.0,1e-05,0.0,0.0,0.0,0.0,0.0,0.0,1000000000000.0,0.0,0.0,0.0,0.0,0.0,0.0,1000000000000.0,0.0,0.0,0.0,0.0,0.0,0.0,1000000000000.0,0.0,0.0,0.0,0.0,0.0,0.0,0.001,0.2198849194319585,1.1381453461946356e-05,0.0,0.0,0.0,0.0254079112386295,0.0,0.0,0.0,0.0,0.0,0.0,0.0,0.0,0.0,0.0,0.0,0.0,0.0,0.0,0.0,0.0,0.0,0.0,0.0,0.0,0.0,0.0,0.0,0.0,0.0,0.0,0.0,0.0,0.0,0.0,0.0,0.0,0.0,0.0,0.0,0.0,0.20452524832616692,0.013908448963706558,0.1891736979687015,0.0,0.0,0.0
3312,168,200000000,168.2,base_footprint,-0.018596676749238178,-0.042421749222623394,-0.14443421071753143,1.0637552462935282,0.0,0.0,0.0,0.0,0.0,0.0,0.0,0.0,0.0,0.06185458915718647,0.03732333645797796,-0.0005439358593668578,0.0,0.0,0.0,0.0,0.0,0.0,0.0,0.0,0.0,0.2914373190066026,0.16413374358059096,-0.26973206877806977,0.0,0.0,0.0,0.0,0.0,0.0,0.0,0.0,0.0,0.0,0.0,0.0,0.0,0.0,0.0,1.0,-1.892746890101628,0.7667828224719999,-0.013114178517659551,0.0003619966279397,0.003837942350623,-0.0956358242589082,0.995408925153514,1e-05,0.0,0.0,0.0,0.0,0.0,0.0,1e-05,0.0,0.0,0.0,0.0,0.0,0.0,1000000000000.0,0.0,0.0,0.0,0.0,0.0,0.0,1000000000000.0,0.0,0.0,0.0,0.0,0.0,0.0,1000000000000.0,0.0,0.0,0.0,0.0,0.0,0.0,0.001,0.2194599867018948,-4.9428237793996965e-06,0.0,0.0,0.0,0.030391514302006,0.0,0.0,0.0,0.0,0.0,0.0,0.0,0.0,0.0,0.0,0.0,0.0,0.0,0.0,0.0,0.0,0.0,0.0,0.0,0.0,0.0,0.0,0.0,0.0,0.0,0.0,0.0,0.0,0.0,0.0,0.0,0.0,0.0,0.0,0.0,0.0,0.21017203648882507,0.05289860927669468,0.028729315819748576,0.0,0.0,0.0
3346,168,234000000,168.234,base_footprint,0.03316486565208551,-0.042675200110451485,-0.08876622512800338,0.9293239084095002,0.0,0.0,0.0,0.0,0.0,0.0,0.0,0.0,0.0,0.049137485920884516,-0.026533476021559997,-0.0397140527301926,0.0,0.0,0.0,0.0,0.0,0.0,0.0,0.0,0.0,0.11527102190430706,-0.19207777829718134,0.09830291877222538,0.0,0.0,0.0,0.0,0.0,0.0,0.0,0.0,0.0,0.0,0.0,0.0,0.0,0.0,0.0,1.0,-1.6477658484918705,0.6216264092996534,0.13211936769963445,0.0003614025729405,0.0038396634126674,-0.0955691092583824,0.9954153262476008,1e-05,0.0,0.0,0.0,0.0,0.0,0.0,1e-05,0.0,0.0,0.0,0.0,0.0,0.0,1000000000000.0,0.0,0.0,0.0,0.0,0.0,0.0,1000000000000.0,0.0,0.0,0.0,0.0,0.0,0.0,1000000000000.0,0.0,0.0,0.0,0.0,0.0,0.0,0.001,0.2198508696267149,-1.3213469248762877e-06,0.0,0.0,0.0,0.0028640223323544,0.0,0.0,0.0,0.0,0.0,0.0,0.0,0.0,0.0,0.0,0.0,0.0,0.0,0.0,0.0,0.0,0.0,0.0,0.0,0.0,0.0,0.0,0.0,0.0,0.0,0.0,0.0,0.0,0.0,0.0,0.0,0.0,0.0,0.0,0.0,0.0,0.23719427754621114,-0.15348535683469866,-0.08793915036931574,0.0,0.0,-0.0067147435620427
3379,168,267000000,168.267,base_footprint,-0.02329986429790497,-0.061952878745795165,0.02015764960524355,0.9639459336491237,0.0,0.0,0.0,0.0,0.0,0.0,0.0,0.0,0.0,0.03381300347737515,-0.009001454822065099,-0.04804266687886508,0.0,0.0,0.0,0.0,0.0,0.0,0.0,0.0,0.0,-0.3107971593656084,-0.2803268293401293,-0.11529375004551769,0.0,0.0,0.0,0.0,0.0,0.0,0.0,0.0,0.0,0.0,0.0,0.0,0.0,0.0,0.0,1.0,-1.818828176294944,0.6464510573656957,0.2435325263563243,0.0003622268358653,0.0038393508048391,-0.0955455161903903,0.9954175920250902,1e-05,0.0,0.0,0.0,0.0,0.0,0.0,1e-05,0.0,0.0,0.0,0.0,0.0,0.0,1000000000000.0,0.0,0.0,0.0,0.0,0.0,0.0,1000000000000.0,0.0,0.0,0.0,0.0,0.0,0.0,1000000000000.0,0.0,0.0,0.0,0.0,0.0,0.0,0.001,0.219931467997415,-1.5986987464897129e-06,0.0,0.0,0.0,0.0014903834759979,0.0,0.0,0.0,0.0,0.0,0.0,0.0,0.0,0.0,0.0,0.0,0.0,0.0,0.0,0.0,0.0,0.0,0.0,0.0,0.0,0.0,0.0,0.0,0.0,0.0,0.0,0.0,0.0,0.0,0.0,0.0,0.0,0.0,0.0,0.0,0.0,0.028676041080586773,-0.19924982541788586,0.05212349928686902,0.0,0.0,-0.0067147435620427
3412,168,300000000,168.3,base_footprint,-0.08129522839021444,0.07248725089524825,-0.1607517119157746,0.9670025642904982,0.0,0.0,0.0,0.0,0.0,0.0,0.0,0.0,0.0,-0.0034207971083912683,0.044695866404839496,-0.07188585535391949,0.0,0.0,0.0,0.0,0.0,0.0,0.0,0.0,0.0,-0.11280583990608557,0.11482615784595764,-0.22671283262605418,0.0,0.0,0.0,0.0,0.0,0.0,0.0,0.0,0.0,0.0,0.0,0.0,0.0,0.0,0.0,1.0,-1.5801779830561378,1.2051482379021654,0.1429570107727921,0.0003633957844744,0.003839781150418,-0.0955346549537629,0.9954186323989954,1e-05,0.0,0.0,0.0,0.0,0.0,0.0,1e-05,0.0,0.0,0.0,0.0,0.0,0.0,1000000000000.0,0.0,0.0,0.0,0.0,0.0,0.0,1000000000000.0,0.0,0.0,0.0,0.0,0.0,0.0,1000000000000.0,0.0,0.0,0.0,0.0,0.0,0.0,0.001,0.2198514497520378,2.238585360795492e-05,0.0,0.0,0.0,-0.0001897554388117,0.0,0.0,0.0,0.0,0.0,0.0,0.0,0.0,0.0,0.0,0.0,0.0,0.0,0.0,0.0,0.0,0.0,0.0,0.0,0.0,0.0,0.0,0.0,0.0,0.0,0.0,0.0,0.0,0.0,0.0,0.0,0.0,0.0,0.0,0.0,0.0,0.13370090681616287,0.22981985147713627,0.008541920829618585,0.0,0.0,-0.0067147435620427
3446,168,334000000,168.334,base_footprint,0.07479463469819479,0.10313910820182884,-0.19861171560406776,0.93672551526775,0.0,0.0,0.0,0.0,0.0,0.0,0.0,0.0,0.0,0.0037875269108406957,0.11407075943100485,0.13124845678086647,0.0,0.0,0.0,0.0,0.0,0.0,0.0,0.0,0.0,0.28013018730618205,0.20081968591341082,0.20306734118975522,0.0,0.0,0.0,0.0,0.0,0.0,0.0,0.0,0.0,0.0,0.0,0.0,0.0,0.0,0.0,1.0,-1.806687962050817,0.6532596805735189,-0.10050336993152334,0.0003580531584988,0.0038402075778446,-0.0939534385254919,0.9955691216550118,1e-05,0.0,0.0,0.0,0.0,0.0,0.0,1e-05,0.0,0.0,0.0,0.0,0.0,0.0,1000000000000.0,0.0,0.0,0.0,0.0,0.0,0.0,1000000000000.0,0.0,0.0,0.0,0.0,0.0,0.0,1000000000000.0,0.0,0.0,0.0,0.0,0.0,0.0,0.001,0.2066131600812897,-4.14842064636739e-05,0.0,0.0,0.0,0.1382519383408406,0.0,0.0,0.0,0.0,0.0,0.0,0.0,0.0,0.0,0.0,0.0,0.0,0.0,0.0,0.0,0.0,0.0,0.0,0.0,0.0,0.0,0.0,0.0,0.0,0.0,0.0,0.0,0.0,0.0,0.0,0.0,0.0,0.0,0.0,0.0,0.0,0.23288645639529448,-0.1094173641589116,-0.06543505203658723,0.0,0.0,-0.0037995004095137
3479,168,367000000,168.367,base_footprint,-0.03800730079174378,-0.005829987307995816,-0.20212752239572973,1.0025472988988509,0.0,0.0,0.0,0.0,0.0,0.0,0.0,0.0,0.0,0.048757092267334295,-0.026205536829785537,0.10068480027045436,0.0,0.0,0.0,0.0,0.0,0.0,0.0,0.0,0.0,-0.4990941116720182,0.033907963328897436,-0.09142376365228216,0.0,0.0,0.0,0.0,0.0,0.0,0.0,0.0,0.0,0.0,0.0,0.0,0.0,0.0,0.0,1.0,-1.7277827523338116,1.0448959477740873,0.13005755418350334,0.0003546413555894,0.0038408887487796,-0.0933371863381278,0.9956270845299507,1e-05,0.0,0.0,0.0,0.0,0.0,0.0,1e-05,0.0,0.0,0.0,0.0,0.0,0.0,1000000000000.0,0.0,0.0,0.0,0.0,0.0,0.0,1000000000000.0,0.0,0.0,0.0,0.0,0.0,0.0,1000000000000.0,0.0,0.0,0.0,0.0,0.0,0.0,0.001,0.206563353421468,1.5450438042435843e-06,0.0,0.0,0.0,-0.0120046320397729,0.0,0.0,0.0,0.0,0.0,0.0,0.0,0.0,0.0,0.0,0.0,0.0,0.0,0.0,0.0,0.0,0.0,0.0,0.0,0.0,0.0,0.0,0.0,0.0,0.0,0.0,0.0,0.0,0.0,0.0,0.0,0.0,0.0,0.0,0.0,0.0,0.25360181328651143,-0.031682270393054456,-0.08640942952833669,0.0,0.0,-0.0037995004095137
3512,168,400000000,168.4,base_footprint,-0.02295831491915628,-0.03780181639511473,-0.10891994582432499,0.9814825246216244,0.0,0.0,0.0,0.0,0.0,0.0,0.0,0.0,0.0,0.023813046175291012,-0.025708619079211452,0.04302395446478577,0.0,0.0,0.0,0.0,0.0,0.0,0.0,0.0,0.0,0.15507913792469805,-0.23458646516653303,0.5512713283160878,0.0,0.0,0.0,0.0,0.0,0.0,0.0,0.0,0.0,0.0,0.0,0.0,0.0,0.0,0.0,1.0,-1.6198128804646643,0.5752758741533421,-0.30415283495984563,0.0003533399580182,0.003836865458573,-0.0934802868129211,0.9956136748717854,1e-05,0.0,0.0,0.0,0.0,0.0,0.0,1e-05,0.0,0.0,0.0,0.0,0.0,0.0,1000000000000.0,0.0,0.0,0.0,0.0,0.0,0.0,1000000000000.0,0.0,0.0,0.0,0.0,0.0,0.0,1000000000000.0,0.0,0.0,0.0,0.0,0.0,0.0,0.001,0.2068050669228699,2.998081942540143e-06,0.0,0.0,0.0,-0.0076345776303271,0.0,0.0,0.0,0.0,0.0,0.0,0.0,0.0,0.0,0.0,0.0,0.0,0.0,0.0,0.0,0.0,0.0,0.0,0.0,0.0,0.0,0.0,0.0,0.0,0.0,0.0,0.0,0.0,0.0,0.0,0.0,0.0,0.0,0.0,0.0,0.0,0.24029490114032387,-0.045289408709218604,0.01672820518349401,0.0,0.0,-0.0037995004095137
3546,168,434000000,168.434,base_footprint,0.11586813810672726,-0.017431925661961112,-0.1804028118801676,1.0469618446440143,0.0,0.0,0.0,0.0,0.0,0.0,0.0,0.0,0.0,-0.0632425810597367,0.012472186178587693,0.020598183161256854,0.0,0.0,0.0,0.0,0.0,0.0,0.0,0.0,0.0,0.2502541908708912,-0.31368280013687777,-0.21745725407588085,0.0,0.0,0.0,0.0,0.0,0.0,0.0,0.0,0.0,0.0,0.0,0.0,0.0,0.0,0.0,1.0,-1.7006155157001124,0.6466801614704161,0.05937291384049252,0.0003541858766937,0.0038334655048813,-0.0943673351511582,0.9955300021350724,1e-05,0.0,0.0,0.0,0.0,0.0,0.0,1e-05,0.0,0.0,0.0,0.0,0.0,0.0,1000000000000.0,0.0,0.0,0.0,0.0,0.0,0.0,1000000000000.0,0.0,0.0,0.0,0.0,0.0,0.0,1000000000000.0,0.0,0.0,0.0,0.0,0.0,0.0,0.001,0.2183719922764177,1.0078018747639028e-05,0.0,0.0,0.0,-0.0290241551142954,0.0,0.0,0.0,0.0,0.0,0.0,0.0,0.0,0.0,0.0,0.0,0.0,0.0,0.0,0.0,0.0,0.0,0.0,0.0,0.0,0.0,0.0,0.0,0.0,0.0,0.0,0.0,0.0,0.0,0.0,0.0,0.0,0.0,0.0,0.0,0.0,0.21919487753472358,-0.07637197754898319,0.09609940672554314,0.0,0.0,0.0
3579,168,467000000,168.467,base_footprint,-0.1523209048172427,0.09328339957232536,-0.01348414814337133,0.9215007002658047,0.0,0.0,0.0,0.0,0.0,0.0,0.0,0.0,0.0,-0.002551884009339966,0.045226555929756995,-0.021162464180851506,0.0,0.0,0.0,0.0,0.0,0.0,0.0,0.0,0.0,0.39708918521940645,-0.13073785667583074,0.1691039303554051,0.0,0.0,0.0,0.0,0.0,0.0,0.0,0.0,0.0,0.0,0.0,0.0,0.0,0.0,0.0,1.0,-1.570922848945305,1.0682750778215804,0.16691163281108956,0.0003567817885092,0.0038369203236652,-0.0944832392320833,0.9955189944212004,1e-05,0.0,0.0,0.0,0.0,0.0,0.0,1e-05,0.0,0.0,0.0,0.0,0.0,0.0,1000000000000.0,0.0,0.0,0.0,0.0,0.0,0.0,1000000000000.0,0.0,0.0,0.0,0.0,0.0,0.0,1000000000000.0,0.0,0.0,0.0,0.0,0.0,0.0,0.001,0.2200436439415054,1.090079618293327e-06,0.0,0.0,0.0,-0.0048438950024634,0.0,0.0,0.0,0.0,0.0,0.0,0.0,0.0,0.0,0.0,0.0,0.0,0.0,0.0,0.0,0.0,0.0,0.0,0.0,0.0,0.0,0.0,0.0,0.0,0.0,0.0,0.0,0.0,0.0,0.0,0.0,0.0,0.0,0.0,0.0,0.0,0.16233235454907247,0.18535613582717803,0.033225471375968825,0.0,0.0,0.0
3612,168,500000000,168.5,base_footprint,0.14351628742244768,-0.20685543007829327,-0.07314485436049734,0.9943978114788338,0.0,0.0,0.0,0.0,0.0,0.0,0.0,0.0,0.0,0.049879147317236604,-0.02597979987457174,0.04050447302127379,0.0,0.0,0.0,0.0,0.0,0.0,0.0,0.0,0.0,0.1640465033546674,0.025966480430707314,0.2767029071927465,0.0,0.0,0.0,0.0,0.0,0.0,0.0,0.0,0.0,0.0,0.0,0.0,0.0,0.0,0.0,1.0,-1.747741842038371,0.7228765117211932,0.2619420700082754,0.0003568043010756,0.0038371087264675,-0.0945602071914857,0.995511685769291,1e-05,0.0,0.0,0.0,0.0,0.0,0.0,1e-05,0.0,0.0,0.0,0.0,0.0,0.0,1000000000000.0,0.0,0.0,0.0,0.0,0.0,0.0,1000000000000.0,0.0,0.0,0.0,0.0,0.0,0.0,1000000000000.0,0.0,0.0,0.0,0.0,0.0,0.0,0.001,0.2200898446220457,3.927576686379997e-07,0.0,0.0,0.0,-0.0048834368751085,0.0,0.0,0.0,0.0,0.0,0.0,0.0,0.0,0.0,0.0,0.0,0.0,0.0,0.0,0.0,0.0,0.0,0.0,0.0,0.0,0.0,0.0,0.0,0.0,0.0,0.0,0.0,0.0,0.0,0.0,0.0,0.0,0.0,0.0,0.0,0.0,0.20778524022618602,-0.0671208684709834,0.05971535886688373,0.0,0.0,0.0
3646,168,534000000,168.534,base_footprint,0.09302842471561021,0.15580035021837327,-0.08006642685443083,1.0726552079810185,0.0,0.0,0.0,0.0,0.0,0.0,0.0,0.0,0.0,-0.01678847384075275,0.023669489792970552,0.0011176177530410165,0.0,0.0,0.0,0.0,0.0,0.0,0.0,0.0,0.0,0.17790902564977945,0.2550690304363249,0.23072950929886746,0.0,0.0,0.0,0.0,0.0,0.0,0.0,0.0,0.0,0.0,0.0,0.0,0.0,0.0,0.0,1.0,-1.4024741519715347,0.583489435539547,0.1548975399504168,0.0003565574269437,0.0038376098088844,-0.094577409623925,0.9955100497767888,1e-05,0.0,0.0,0.0,0.0,0.0,0.0,1e-05,0.0,0.0,0.0,0.0,0.0,0.0,1000000000000.0,0.0,0.0,0.0,0.0,0.0,0.0,1000000000000.0,0.0,0.0,0.0,0.0,0.0,0.0,1000000000000.0,0.0,0.0,0.0,0.0,0.0,0.0,0.001,0.2201002150934526,-9.65670545825803e-07,0.0,0.0,0.0,-0.0012061230241605,0.0,0.0,0.0,0.0,0.0,0.0,0.0,0.0,0.0,0.0,0.0,0.0,0.0,0.0,0.0,0.0,0.0,0.0,0.0,0.0,0.0,0.0,0.0,0.0,0.0,0.0,0.0,0.0,0.0,0.0,0.0,0.0,0.0,0.0,0.0,0.0,0.21026493821536674,-0.13111183317281708,0.0821801790207309,0.0,0.0,0.0071220519021153
3679,168,567000000,168.567,base_footprint,0.07257367622880226,-0.060104087550235066,-0.19644459601795833,1.0120438045006128,0.0,0.0,0.0,0.0,0.0,0.0,0.0,0.0,0.0,0.0833878393242074,0.1108627173713722,0.00026247752717886816,0.0,0.0,0.0,0.0,0.0,0.0,0.0,0.0,0.0,0.11424579118756356,0.3436628383031181,0.17377831415345849,0.0,0.0,0.0,0.0,0.0,0.0,0.0,0.0,0.0,0.0,0.0,0.0,0.0,0.0,0.0,1.0,-1.9389166283388104,1.195596559820931,-0.06080475729111683,0.0003562677216675,0.0038384023084007,-0.094594629636568,0.9955084107052788,1e-05,0.0,0.0,0.0,0.0,0.0,0.0,1e-05,0.0,0.0,0.0,0.0,0.0,0.0,1000000000000.0,0.0,0.0,0.0,0.0,0.0,0.0,1000000000000.0,0.0,0.0,0.0,0.0,0.0,0.0,1000000000000.0,0.0,0.0,0.0,0.0,0.0,0.0,0.001,0.2201196702429232,-2.142160304641205e-06,0.0,0.0,0.0,-0.0010830783086691,0.0,0.0,0.0,0.0,0.0,0.0,0.0,0.0,0.0,0.0,0.0,0.0,0.0,0.0,0.0,0.0,0.0,0.0,0.0,0.0,0.0,0.0,0.0,0.0,0.0,0.0,0.0,0.0,0.0,0.0,0.0,0.0,0.0,0.0,0.0,0.0,0.2151160562237061,0.1150654980141364,-0.06553248762842526,0.0,0.0,0.0071220519021153
3712,168,600000000,168.6,base_footprint,0.16632255760532874,-0.011219093115255459,-0.07829872779496563,1.0199962436381225,0.0,0.0,0.0,0.0,0.0,0.0,0.0,0.0,0.0,0.012037625095245192,0.07917482798759962,-0.012961834494214413,0.0,0.0,0.0,0.0,0.0,0.0,0.0,0.0,0.0,0.051017026992887404,-0.13048621534005586,0.2719650112459131,0.0,0.0,0.0,0.0,0.0,0.0,0.0,0.0,0.0,0.0,0.0,0.0,0.0,0.0,0.0,1.0,-1.6158296014698341,0.7426668354338488,-0.008097668419328971,0.0003561300932612,0.0038391231427676,-0.0946070412466503,0.9955072285279528,1e-05,0.0,0.0,0.0,0.0,0.0,0.0,1e-05,0.0,0.0,0.0,0.0,0.0,0.0,1000000000000.0,0.0,0.0,0.0,0.0,0.0,0.0,1000000000000.0,0.0,0.0,0.0,0.0,0.0,0.0,1000000000000.0,0.0,0.0,0.0,0.0,0.0,0.0,0.001,0.220104951495645,-4.0531485139896906e-06,0.0,0.0,0.0,-0.0006178473284456,0.0,0.0,0.0,0.0,0.0,0.0,0.0,0.0,0.0,0.0,0.0,0.0,0.0,0.0,0.0,0.0,0.0,0.0,0.0,0.0,0.0,0.0,0.0,0.0,0.0,0.0,0.0,0.0,0.0,0.0,0.0,0.0,0.0,0.0,0.0,0.0,0.2658879617691906,0.0643769150168245,0.020382744260401348,0.0,0.0,0.0071220519021153
3746,168,634000000,168.634,base_footprint,-0.00309386838637218,0.03200772533525944,-0.06266172244154355,1.003486377779247,0.0,0.0,0.0,0.0,0.0,0.0,0.0,0.0,0.0,-0.0016335431909857852,0.02715299922366981,-0.08439189095782516,0.0,0.0,0.0,0.0,0.0,0.0,0.0,0.0,0.0,0.2881107009613933,-0.05077681218299208,-0.4431673133663017,0.0,0.0,0.0,0.0,0.0,0.0,0.0,0.0,0.0,0.0,0.0,0.0,0.0,0.0,0.0,1.0,-1.5535566457332954,0.5728089631655594,0.1539959065784338,0.0003556607360575,0.0038396969014927,-0.0944944182865061,0.9955179230660994,1e-05,0.0,0.0,0.0,0.0,0.0,0.0,1e-05,0.0,0.0,0.0,0.0,0.0,0.0,1000000000000.0,0.0,0.0,0.0,0.0,0.0,0.0,1000000000000.0,0.0,0.0,0.0,0.0,0.0,0.0,1000000000000.0,0.0,0.0,0.0,0.0,0.0,0.0,0.001,0.2200424436251371,-2.015013493776585e-06,0.0,0.0,0.0,0.0067733051979271,0.0,0.0,0.0,0.0,0.0,0.0,0.0,0.0,0.0,0.0,0.0,0.0,0.0,0.0,0.0,0.0,0.0,0.0,0.0,0.0,0.0,0.0,0.0,0.0,0.0,0.0,0.0,0.0,0.0,0.0,0.0,0.0,0.0,0.0,0.0,0.0,0.0849483697234108,-0.015516488797180062,0.10201780883921832,0.0,0.0,0.0202628355473279
3779,168,667000000,168.667,base_footprint,-0.020957090161446375,0.03171332652937159,0.022447521837736892,0.964404152130944,0.0,0.0,0.0,0.0,0.0,0.0,0.0,0.0,0.0,0.07913051804351544,-0.03151912409650764,0.0075588286880678285,0.0,0.0,0.0,0.0,0.0,0.0,0.0,0.0,0.0,-0.02462762190637472,0.5622122562769375,0.02343589658623363,0.0,0.0,0.0,0.0,0.0,0.0,0.0,0.0,0.0,0.0,0.0,0.0,0.0,0.0,0.0,1.0,-1.6338267387234469,0.8494402318441303,0.019795816768348108,0.000355860068818,0.0038399957833212,-0.0943492858520289,0.9955316871175962,1e-05,0.0,0.0,0.0,0.0,0.0,0.0,1e-05,0.0,0.0,0.0,0.0,0.0,0.0,1000000000000.0,0.0,0.0,0.0,0.0,0.0,0.0,1000000000000.0,0.0,0.0,0.0,0.0,0.0,0.0,1000000000000.0,0.0,0.0,0.0,0.0,0.0,0.0,0.001,0.2195976308765705,-5.344534250169286e-06,0.0,0.0,0.0,0.0120577011800773,0.0,0.0,0.0,0.0,0.0,0.0,0.0,0.0,0.0,0.0,0.0,0.0,0.0,0.0,0.0,0.0,0.0,0.0,0.0,0.0,0.0,0.0,0.0,0.0,0.0,0.0,0.0,0.0,0.0,0.0,0.0,0.0,0.0,0.0,0.0,0.0,0.16049133559773968,-0.05464829705855156,-0.06475555593506781,0.0,0.0,0.0202628355473279
3812,168,700000000,168.7,base_footprint,0.0288599986628602,-0.03858354355227799,0.08671181197553932,0.9484827547762851,0.0,0.0,0.0,0.0,0.0,0.0,0.0,0.0,0.0,0.03260203408287052,0.0953185491867258,0.056760209101245254,0.0,0.0,0.0,0.0,0.0,0.0,0.0,0.0,0.0,-0.08881894363952489,0.07744563326874485,-0.15419116473118585,0.0,0.0,0.0,0.0,0.0,0.0,0.0,0.0,0.0,0.0,0.0,0.0,0.0,0.0,0.0,1.0,-1.7463113579473974,0.8261012386741565,0.021327961171097146,0.000355285823728,0.0038409882213443,-0.0942007915615977,0.9955457455338932,1e-05,0.0,0.0,0.0,0.0,0.0,0.0,1e-05,0.0,0.0,0.0,0.0,0.0,0.0,1000000000000.0,0.0,0.0,0.0,0.0,0.0,0.0,1000000000000.0,0.0,0.0,0.0,0.0,0.0,0.0,1000000000000.0,0.0,0.0,0.0,0.0,0.0,0.0,0.001,0.2199648881840229,-8.979144620578638e-06,0.0,0.0,0.0,0.0084171883717297,0.0,0.0,0.0,0.0,0.0,0.0,0.0,0.0,0.0,0.0,0.0,0.0,0.0,0.0,0.0,0.0,0.0,0.0,0.0,0.0,0.0,0.0,0.0,0.0,0.0,0.0,0.0,0.0,0.0,0.0,0.0,0.0,0.0,0.0,0.0,0.0,0.39104861165166316,0.004400429600078286,-0.08379853884366274,0.0,0.0,0.0202628355473279
3846,168,734000000,168.734,base_footprint,-0.22465898121827405,0.04970078621665412,0.013324677497054238,0.8978529459373905,0.0,0.0,0.0,0.0,0.0,0.0,0.0,0.0,0.0,0.08644180387209184,0.12622670092883428,-0.025130019036236635,0.0,0.0,0.0,0.0,0.0,0.0,0.0,0.0,0.0,-0.056147869116053795,0.02381055800392375,-0.1703995434020071,0.0,0.0,0.0,0.0,0.0,0.0,0.0,0.0,0.0,0.0,0.0,0.0,0.0,0.0,0.0,1.0,-1.751878834328788,0.9443597574967075,0.058046304175832585,0.0003554155387016,0.0038399785926181,-0.0938337173175603,0.9955804145012954,1e-05,0.0,0.0,0.0,0.0,0.0,0.0,1e-05,0.0,0.0,0.0,0.0,0.0,0.0,1000000000000.0,0.0,0.0,0.0,0.0,0.0,0.0,1000000000000.0,0.0,0.0,0.0,0.0,0.0,0.0,1000000000000.0,0.0,0.0,0.0,0.0,0.0,0.0,0.001,0.2197364846412085,-9.424058442682182e-06,0.0,0.0,0.0,0.0220258756467495,0.0,0.0,0.0,0.0,0.0,0.0,0.0,0.0,0.0,0.0,0.0,0.0,0.0,0.0,0.0,0.0,0.0,0.0,0.0,0.0,0.0,0.0,0.0,0.0,0.0,0.0,0.0,0.0,0.0,0.0,0.0,0.0,0.0,0.0,0.0,0.0,0.24743024121340138,-0.20991075325183708,0.07293616027036463,0.0,0.0,0.012944521382451
