imu_seq,secs,nsecs,timestamp,imu_frame_id,imu_orientation_x,imu_orientation_y,imu_orientation_z,imu_orientation_w,imu_orientation_cov_0,imu_orientation_cov_1,imu_orientation_cov_2,imu_orientation_cov_3,imu_orientation_cov_4,imu_orientation_cov_5,imu_orientation_cov_6,imu_orientation_cov_7,imu_orientation_cov_8,imu_angular_vel_x,imu_angular_vel_y,imu_angular_vel_z,imu_angular_vel_cov_0,imu_angular_vel_cov_1,imu_angular_vel_cov_2,imu_angular_vel_cov_3,imu_angular_vel_cov_4,imu_angular_vel_cov_5,imu_angular_vel_cov_6,imu_angular_vel_cov_7,imu_angular_vel_cov_8,imu_linear_acc_x,imu_linear_acc_y,imu_linear_acc_z,imu_linear_acc_cov_0,imu_linear_acc_cov_1,imu_linear_acc_cov_2,imu_linear_acc_cov_3,imu_linear_acc_cov_4,imu_linear_acc_cov_5,imu_linear_acc_cov_6,imu_linear_acc_cov_7,imu_linear_acc_cov_8,map_position_x,map_position_y,map_position_z,map_orientation_x,map_orientation_y,map_orientation_z,map_orientation_w,odom_pose_x,odom_pose_y,odom_pose_z,odom_orientation_x,odom_orientation_y,odom_orientation_z,odom_orientation_w,odom_pose_cov_0,odom_pose_cov_1,odom_pose_cov_2,odom_pose_cov_3,odom_pose_cov_4,odom_pose_cov_5,odom_pose_cov_6,odom_pose_cov_7,odom_pose_cov_8,odom_pose_cov_9,odom_pose_cov_10,odom_pose_cov_11,odom_pose_cov_12,odom_pose_cov_13,odom_pose_cov_14,odom_pose_cov_15,odom_pose_cov_16,odom_pose_cov_17,odom_pose_cov_18,odom_pose_cov_19,odom_pose_cov_20,odom_pose_cov_21,odom_pose_cov_22,odom_pose_cov_23,odom_pose_cov_24,odom_pose_cov_25,odom_pose_cov_26,odom_pose_cov_27,odom_pose_cov_28,odom_pose_cov_29,odom_pose_cov_30,odom_pose_cov_31,odom_pose_cov_32,odom_pose_cov_33,odom_pose_cov_34,odom_pose_cov_35,odom_twist_linear_x,odom_twist_linear_y,odom_twist_linear_z,odom_twist_angular_x,odom_twist_angular_y,odom_twist_angular_z,odom_twist_cov_0,odom_twist_cov_1,odom_twist_cov_2,odom_twist_cov_3,odom_twist_cov_4,odom_twist_cov_5,odom_twist_cov_6,odom_twist_cov_7,odom_twist_cov_8,odom_twist_cov_9,odom_twist_cov_10,odom_twist_cov_11,odom_twist_cov_12,odom_twist_cov_13,odom_twist_cov_14,odom_twist_cov_15,odom_twist_cov_16,odom_twist_cov_17,odom_twist_cov_18,odom_twist_cov_19,odom_twist_cov_20,odom_twist_cov_21,odom_twist_cov_22,odom_twist_cov_23,odom_twist_cov_24,odom_twist_cov_25,odom_twist_cov_26,odom_twist_cov_27,odom_twist_cov_28,odom_twist_cov_29,odom_twist_cov_30,odom_twist_cov_31,odom_twist_cov_32,odom_twist_cov_33,odom_twist_cov_34,odom_twist_cov_35,cmd_vel_linear_x,cmd_vel_linear_y,cmd_vel_linear_z,cmd_vel_angular_x,cmd_vel_angular_y,cmd_vel_angular_z
12,164,900000000,164.9,base_footprint,0.0002956092829170909,0.003842408575584957,-0.07802841395982109,0.9969436870387439,0.0,0.0,0.0,0.0,0.0,0.0,0.0,0.0,0.0,4.114862144181753e-05,-0.0007949956586276315,-0.01930468073323279,0.0,0.0,0.0,0.0,0.0,0.0,0.0,0.0,0.0,0.06572897484481892,-0.027370941839991107,-0.015434404340012439,0.0,0.0,0.0,0.0,0.0,0.0,0.0,0.0,0.0,0.0,0.0,0.0,0.0,0.0,0.0,1.0,-2.450377971977103,0.9538806476389783,-0.0010014723676633926,0.0002957874895454708,0.003842208353994429,-0.07803863872388812,0.9969428874368121,1e-05,0.0,0.0,0.0,0.0,0.0,0.0,1e-05,0.0,0.0,0.0,0.0,0.0,0.0,1000000000000.0,0.0,0.0,0.0,0.0,0.0,0.0,1000000000000.0,0.0,0.0,0.0,0.0,0.0,0.0,1000000000000.0,0.0,0.0,0.0,0.0,0.0,0.0,0.001,0.20670453049250195,1.3967282000808268e-05,0.0,0.0,0.0,-0.020261633362399306,0.0,0.0,0.0,0.0,0.0,0.0,0.0,0.0,0.0,0.0,0.0,0.0,0.0,0.0,0.0,0.0,0.0,0.0,0.0,0.0,0.0,0.0,0.0,0.0,0.0,0.0,0.0,0.0,0.0,0.0,0.0,0.0,0.0,0.0,0.0,0.0,0.2199999988079071,2.6869950033869827e-06,0.0,0.0,0.0,-0.0012382704298943281
46,164,934000000,164.934,base_footprint,0.0002914122056750627,0.0038464961475625126,-0.07729680769838643,0.9970006635233258,0.0,0.0,0.0,0.0,0.0,0.0,0.0,0.0,0.0,0.00014158956054985614,8.103893094645838e-06,0.059062546905032855,0.0,0.0,0.0,0.0,0.0,0.0,0.0,0.0,0.0,-0.012115479019622576,0.0164212872102494,0.011202241832310415,0.0,0.0,0.0,0.0,0.0,0.0,0.0,0.0,0.0,0.0,0.0,0.0,0.0,0.0,0.0,1.0,-2.4434616812478316,0.9527948012866438,-0.0010019210218671706,0.000291192410843438,0.003846452915341245,-0.07726735289859228,0.9970029469279388,1e-05,0.0,0.0,0.0,0.0,0.0,0.0,1e-05,0.0,0.0,0.0,0.0,0.0,0.0,1000000000000.0,0.0,0.0,0.0,0.0,0.0,0.0,1000000000000.0,0.0,0.0,0.0,0.0,0.0,0.0,1000000000000.0,0.0,0.0,0.0,0.0,0.0,0.0,0.001,0.20579300746166118,-2.283582162928427e-05,0.0,0.0,0.0,0.0593522111108802,0.0,0.0,0.0,0.0,0.0,0.0,0.0,0.0,0.0,0.0,0.0,0.0,0.0,0.0,0.0,0.0,0.0,0.0,0.0,0.0,0.0,0.0,0.0,0.0,0.0,0.0,0.0,0.0,0.0,0.0,0.0,0.0,0.0,0.0,0.0,0.0,0.2199999988079071,2.6869950033869827e-06,0.0,0.0,0.0,-0.0012382704298943281
79,164,967000000,164.967,base_footprint,0.00028950430197520146,0.0038468322837114126,-0.0763449914236175,0.9970739994369365,0.0,0.0,0.0,0.0,0.0,0.0,0.0,0.0,0.0,0.0005954434292204717,-6.19486010988177e-05,0.05645520516739046,0.0,0.0,0.0,0.0,0.0,0.0,0.0,0.0,0.0,-0.009916382588798182,0.017144830527956376,-0.00041817610243706873,0.0,0.0,0.0,0.0,0.0,0.0,0.0,0.0,0.0,0.0,0.0,0.0,0.0,0.0,0.0,1.0,-2.43675605566205,0.9517553006520334,-0.0010019487255095265,0.00028945013451052264,0.0038468952457981027,-0.07631706901661926,0.9970761368081678,1e-05,0.0,0.0,0.0,0.0,0.0,0.0,1e-05,0.0,0.0,0.0,0.0,0.0,0.0,1000000000000.0,0.0,0.0,0.0,0.0,0.0,0.0,1000000000000.0,0.0,0.0,0.0,0.0,0.0,0.0,1000000000000.0,0.0,0.0,0.0,0.0,0.0,0.0,0.001,0.20552290505323378,2.6869949733519805e-06,0.0,0.0,0.0,0.056197620291021225,0.0,0.0,0.0,0.0,0.0,0.0,0.0,0.0,0.0,0.0,0.0,0.0,0.0,0.0,0.0,0.0,0.0,0.0,0.0,0.0,0.0,0.0,0.0,0.0,0.0,0.0,0.0,0.0,0.0,0.0,0.0,0.0,0.0,0.0,0.0,0.0,0.2199999988079071,2.6869950033869827e-06,0.0,0.0,0.0,-0.0012382704298943281
112,165,0,165.0,base_footprint,0.00028171741351065385,0.003840916482281852,-0.07559791768452907,0.9971309456824807,0.0,0.0,0.0,0.0,0.0,0.0,0.0,0.0,0.0,-0.0002838325025630593,-0.0006247983692862922,0.03459063170883299,0.0,0.0,0.0,0.0,0.0,0.0,0.0,0.0,0.0,-0.020249843225938743,0.012704091982204303,-0.005809034682329284,0.0,0.0,0.0,0.0,0.0,0.0,0.0,0.0,0.0,0.0,0.0,0.0,0.0,0.0,0.0,1.0,-2.4300773982125117,0.9507324609433057,-0.0010011963322405885,0.00028154152797843485,0.0038407740409852993,-0.07558092038845321,0.9971322347925418,1e-05,0.0,0.0,0.0,0.0,0.0,0.0,1e-05,0.0,0.0,0.0,0.0,0.0,0.0,1000000000000.0,0.0,0.0,0.0,0.0,0.0,0.0,1000000000000.0,0.0,0.0,0.0,0.0,0.0,0.0,1000000000000.0,0.0,0.0,0.0,0.0,0.0,0.0,0.001,0.2039831277002504,1.4198246962027206e-06,0.0,0.0,0.0,0.03425448776865699,0.0,0.0,0.0,0.0,0.0,0.0,0.0,0.0,0.0,0.0,0.0,0.0,0.0,0.0,0.0,0.0,0.0,0.0,0.0,0.0,0.0,0.0,0.0,0.0,0.0,0.0,0.0,0.0,0.0,0.0,0.0,0.0,0.0,0.0,0.0,0.0,0.2199999988079071,2.6869950033869827e-06,0.0,0.0,0.0,-0.0012382704298943281
146,165,34000000,165.034,base_footprint,0.0002844997258860602,0.003840298711461498,-0.07651020217354315,0.9970613622686803,0.0,0.0,0.0,0.0,0.0,0.0,0.0,0.0,0.0,-0.0008628252153716634,-0.0008281318739377205,-0.0936411701583982,0.0,0.0,0.0,0.0,0.0,0.0,0.0,0.0,0.0,0.06765798044559965,-0.044020358684892465,0.01323211769274735,0.0,0.0,0.0,0.0,0.0,0.0,0.0,0.0,0.0,0.0,0.0,0.0,0.0,0.0,0.0,1.0,-2.423024422685775,0.9496540464529741,-0.001001122692500734,0.0002847159648527703,0.003839867054217951,-0.07655639111951486,0.9970578184521605,1e-05,0.0,0.0,0.0,0.0,0.0,0.0,1e-05,0.0,0.0,0.0,0.0,0.0,0.0,1000000000000.0,0.0,0.0,0.0,0.0,0.0,0.0,1000000000000.0,0.0,0.0,0.0,0.0,0.0,0.0,1000000000000.0,0.0,0.0,0.0,0.0,0.0,0.0,0.001,0.21342746388925765,4.7860250892102496e-05,0.0,0.0,0.0,-0.09248989041851605,0.0,0.0,0.0,0.0,0.0,0.0,0.0,0.0,0.0,0.0,0.0,0.0,0.0,0.0,0.0,0.0,0.0,0.0,0.0,0.0,0.0,0.0,0.0,0.0,0.0,0.0,0.0,0.0,0.0,0.0,0.0,0.0,0.0,0.0,0.0,0.0,0.2199999988079071,1.4988372640800662e-05,0.0,0.0,0.0,0.0
179,165,67000000,165.067,base_footprint,0.00028903143295506257,0.003838836473460318,-0.07764642393734987,0.9969735265517848,0.0,0.0,0.0,0.0,0.0,0.0,0.0,0.0,0.0,-0.0002674131212293075,-0.0001509436256321569,-0.03907745510331152,0.0,0.0,0.0,0.0,0.0,0.0,0.0,0.0,0.0,0.14827648935538404,-0.05770996648417122,-0.001596534171312832,0.0,0.0,0.0,0.0,0.0,0.0,0.0,0.0,0.0,0.0,0.0,0.0,0.0,0.0,0.0,1.0,-2.4160053626181774,0.9485614465747125,-0.001001070980954092,0.00028910946863619936,0.003838822469316068,-0.07766483222493416,0.9969720927354172,1e-05,0.0,0.0,0.0,0.0,0.0,0.0,1e-05,0.0,0.0,0.0,0.0,0.0,0.0,1000000000000.0,0.0,0.0,0.0,0.0,0.0,0.0,1000000000000.0,0.0,0.0,0.0,0.0,0.0,0.0,1000000000000.0,0.0,0.0,0.0,0.0,0.0,0.0,0.001,0.21744038268595048,1.4988372269111871e-05,0.0,0.0,0.0,-0.03682139488974123,0.0,0.0,0.0,0.0,0.0,0.0,0.0,0.0,0.0,0.0,0.0,0.0,0.0,0.0,0.0,0.0,0.0,0.0,0.0,0.0,0.0,0.0,0.0,0.0,0.0,0.0,0.0,0.0,0.0,0.0,0.0,0.0,0.0,0.0,0.0,0.0,0.2199999988079071,1.4988372640800662e-05,0.0,0.0,0.0,0.0
212,165,100000000,165.1,base_footprint,0.00029214610378144873,0.0038418705994749543,-0.07781166608964285,0.9969606307679882,0.0,0.0,0.0,0.0,0.0,0.0,0.0,0.0,0.0,7.793645019947936e-05,-7.252579954630961e-05,-0.00197923003312985,0.0,0.0,0.0,0.0,0.0,0.0,0.0,0.0,0.0,0.0049198449765005875,-0.0019958352259123054,-0.0042201517373081695,0.0,0.0,0.0,0.0,0.0,0.0,0.0,0.0,0.0,0.0,0.0,0.0,0.0,0.0,0.0,1.0,-2.40885141963819,0.9474383566623084,-0.0010014029731133071,0.000292154516045997,0.0038419450973034316,-0.07781258763636081,0.9969605585523139,1e-05,0.0,0.0,0.0,0.0,0.0,0.0,1e-05,0.0,0.0,0.0,0.0,0.0,0.0,1000000000000.0,0.0,0.0,0.0,0.0,0.0,0.0,1000000000000.0,0.0,0.0,0.0,0.0,0.0,0.0,1000000000000.0,0.0,0.0,0.0,0.0,0.0,0.0,0.001,0.2199653037621846,1.1224115648855726e-06,0.0,0.0,0.0,-0.0019447104979747637,0.0,0.0,0.0,0.0,0.0,0.0,0.0,0.0,0.0,0.0,0.0,0.0,0.0,0.0,0.0,0.0,0.0,0.0,0.0,0.0,0.0,0.0,0.0,0.0,0.0,0.0,0.0,0.0,0.0,0.0,0.0,0.0,0.0,0.0,0.0,0.0,0.2199999988079071,1.4988372640800662e-05,0.0,0.0,0.0,0.0
246,165,134000000,165.134,base_footprint,0.00029209767196831585,0.0038421335975633232,-0.0778233564657982,0.9969597172788707,0.0,0.0,0.0,0.0,0.0,0.0,0.0,0.0,0.0,4.96775225718936e-05,-0.00016321268078347816,-0.0008098259849325687,0.0,0.0,0.0,0.0,0.0,0.0,0.0,0.0,0.0,0.0012381588309895812,-0.0005697958825586595,-4.580366748977767e-05,0.0,0.0,0.0,0.0,0.0,0.0,0.0,0.0,0.0,0.0,0.0,0.0,0.0,0.0,0.0,1.0,-2.401462685101302,0.9462778240451939,-0.0010014198045373568,0.0002920929887283561,0.0038421371936971076,-0.07782370150436776,0.9969596903323775,1e-05,0.0,0.0,0.0,0.0,0.0,0.0,1e-05,0.0,0.0,0.0,0.0,0.0,0.0,1000000000000.0,0.0,0.0,0.0,0.0,0.0,0.0,1000000000000.0,0.0,0.0,0.0,0.0,0.0,0.0,1000000000000.0,0.0,0.0,0.0,0.0,0.0,0.0,0.001,0.21999978501928838,2.908364806694652e-07,0.0,0.0,0.0,-0.0008122042245083596,0.0,0.0,0.0,0.0,0.0,0.0,0.0,0.0,0.0,0.0,0.0,0.0,0.0,0.0,0.0,0.0,0.0,0.0,0.0,0.0,0.0,0.0,0.0,0.0,0.0,0.0,0.0,0.0,0.0,0.0,0.0,0.0,0.0,0.0,0.0,0.0,0.2199999988079071,0.0,0.0,0.0,0.0,0.02370398491621017
279,165,167000000,165.167,base_footprint,0.0002919235525173801,0.003842377233053855,-0.07783538479617243,0.9969587773782175,0.0,0.0,0.0,0.0,0.0,0.0,0.0,0.0,0.0,2.213194903114077e-05,-0.00015517425145881438,-0.0009090708972844538,0.0,0.0,0.0,0.0,0.0,0.0,0.0,0.0,0.0,0.001266809020033075,-0.0007118677603442316,0.0002127022616057281,0.0,0.0,0.0,0.0,0.0,0.0,0.0,0.0,0.0,0.0,0.0,0.0,0.0,0.0,0.0,1.0,-2.3942900222509875,0.945151058533774,-0.0010014553510578304,0.0002919164019201901,0.0038423885177031564,-0.07783576998446234,0.9969587472640075,1e-05,0.0,0.0,0.0,0.0,0.0,0.0,1e-05,0.0,0.0,0.0,0.0,0.0,0.0,1000000000000.0,0.0,0.0,0.0,0.0,0.0,0.0,1000000000000.0,0.0,0.0,0.0,0.0,0.0,0.0,1000000000000.0,0.0,0.0,0.0,0.0,0.0,0.0,0.001,0.2200445334157687,-2.041957166479258e-07,0.0,0.0,0.0,-0.0009113999574347634,0.0,0.0,0.0,0.0,0.0,0.0,0.0,0.0,0.0,0.0,0.0,0.0,0.0,0.0,0.0,0.0,0.0,0.0,0.0,0.0,0.0,0.0,0.0,0.0,0.0,0.0,0.0,0.0,0.0,0.0,0.0,0.0,0.0,0.0,0.0,0.0,0.2199999988079071,0.0,0.0,0.0,0.0,0.02370398491621017
312,165,200000000,165.2,base_footprint,0.0002917112203982951,0.0038428713791285618,-0.07784879143228364,0.9969577287511543,0.0,0.0,0.0,0.0,0.0,0.0,0.0,0.0,0.0,-8.759931060286438e-05,-9.959539132369946e-05,-0.0009697221865308165,0.0,0.0,0.0,0.0,0.0,0.0,0.0,0.0,0.0,0.0014689094303712198,-0.0006989405101460005,7.434199163535354e-05,0.0,0.0,0.0,0.0,0.0,0.0,0.0,0.0,0.0,0.0,0.0,0.0,0.0,0.0,0.0,1.0,-2.3871160988913473,0.9440239058356815,-0.0010015226987377633,0.0002917072632213102,0.0038428884014782964,-0.07784922299276065,0.9969576949876209,1e-05,0.0,0.0,0.0,0.0,0.0,0.0,1e-05,0.0,0.0,0.0,0.0,0.0,0.0,1000000000000.0,0.0,0.0,0.0,0.0,0.0,0.0,1000000000000.0,0.0,0.0,0.0,0.0,0.0,0.0,1000000000000.0,0.0,0.0,0.0,0.0,0.0,0.0,0.001,0.22008788404117813,-8.344592858922084e-07,0.0,0.0,0.0,-0.0009725109900436537,0.0,0.0,0.0,0.0,0.0,0.0,0.0,0.0,0.0,0.0,0.0,0.0,0.0,0.0,0.0,0.0,0.0,0.0,0.0,0.0,0.0,0.0,0.0,0.0,0.0,0.0,0.0,0.0,0.0,0.0,0.0,0.0,0.0,0.0,0.0,0.0,0.2199999988079071,0.0,0.0,0.0,0.0,0.02370398491621017
346,165,234000000,165.234,base_footprint,0.0002899972907114968,0.0038436614563554534,-0.07748006720395749,0.9969864499351285,0.0,0.0,0.0,0.0,0.0,0.0,0.0,0.0,0.0,7.882957780945038e-05,-0.00011537676578032572,0.022671880981785738,0.0,0.0,0.0,0.0,0.0,0.0,0.0,0.0,0.0,0.0027085321182706425,0.00421865259664858,-0.0004395849321660253,0.0,0.0,0.0,0.0,0.0,0.0,0.0,0.0,0.0,0.0,0.0,0.0,0.0,0.0,0.0,1.0,-2.379729952546382,0.9428658680764874,-0.001001616877017733,0.0002899486062191632,0.003843688953656035,-0.07746871341844028,0.9969873321293131,1e-05,0.0,0.0,0.0,0.0,0.0,0.0,1e-05,0.0,0.0,0.0,0.0,0.0,0.0,1000000000000.0,0.0,0.0,0.0,0.0,0.0,0.0,1000000000000.0,0.0,0.0,0.0,0.0,0.0,0.0,1000000000000.0,0.0,0.0,0.0,0.0,0.0,0.0,0.001,0.2199181156762377,-1.3520576480074986e-05,0.0,0.0,0.0,0.022667692792772143,0.0,0.0,0.0,0.0,0.0,0.0,0.0,0.0,0.0,0.0,0.0,0.0,0.0,0.0,0.0,0.0,0.0,0.0,0.0,0.0,0.0,0.0,0.0,0.0,0.0,0.0,0.0,0.0,0.0,0.0,0.0,0.0,0.0,0.0,0.0,0.0,0.2199999988079071,0.0,0.0,0.0,0.0,0.030801651999354362
379,165,267000000,165.267,base_footprint,0.00028846285222743144,0.003844301845111023,-0.07710581539090842,0.997015461949016,0.0,0.0,0.0,0.0,0.0,0.0,0.0,0.0,0.0,8.926754371524788e-05,-0.00012159854949874162,0.022603617911481882,0.0,0.0,0.0,0.0,0.0,0.0,0.0,0.0,0.0,0.00297487034012398,0.004167220665070019,-7.683937402165176e-06,0.0,0.0,0.0,0.0,0.0,0.0,0.0,0.0,0.0,0.0,0.0,0.0,0.0,0.0,0.0,1.0,-2.372559314897693,0.9417470854904009,-0.0010016830193595658,0.00028841889295379584,0.003844314452525502,-0.07709450876746066,0.9970163362647758,1e-05,0.0,0.0,0.0,0.0,0.0,0.0,1e-05,0.0,0.0,0.0,0.0,0.0,0.0,1000000000000.0,0.0,0.0,0.0,0.0,0.0,0.0,1000000000000.0,0.0,0.0,0.0,0.0,0.0,0.0,1000000000000.0,0.0,0.0,0.0,0.0,0.0,0.0,0.001,0.219954061122781,-1.7623238427959265e-05,0.0,0.0,0.0,0.022596517020126265,0.0,0.0,0.0,0.0,0.0,0.0,0.0,0.0,0.0,0.0,0.0,0.0,0.0,0.0,0.0,0.0,0.0,0.0,0.0,0.0,0.0,0.0,0.0,0.0,0.0,0.0,0.0,0.0,0.0,0.0,0.0,0.0,0.0,0.0,0.0,0.0,0.2199999988079071,0.0,0.0,0.0,0.0,0.030801651999354362
412,165,300000000,165.3,base_footprint,0.00028731729691640443,0.00384500138207733,-0.07673421479655124,0.9970441282574707,0.0,0.0,0.0,0.0,0.0,0.0,0.0,0.0,0.0,9.424792084915238e-05,-5.6585438997417304e-05,0.022651830602728365,0.0,0.0,0.0,0.0,0.0,0.0,0.0,0.0,0.0,0.002300450781765413,0.008593135496825723,-8.074905426509052e-05,0.0,0.0,0.0,0.0,0.0,0.0,0.0,0.0,0.0,0.0,0.0,0.0,0.0,0.0,0.0,1.0,-2.3653865305524504,0.9406339708646241,-0.0010017597465495805,0.000287279679809932,0.0038450372468838306,-0.07672290474741864,0.9970449985061226,1e-05,0.0,0.0,0.0,0.0,0.0,0.0,1e-05,0.0,0.0,0.0,0.0,0.0,0.0,1000000000000.0,0.0,0.0,0.0,0.0,0.0,0.0,1000000000000.0,0.0,0.0,0.0,0.0,0.0,0.0,1000000000000.0,0.0,0.0,0.0,0.0,0.0,0.0,0.001,0.21997415645532742,2.589054556675907e-06,0.0,0.0,0.0,0.022670579588663028,0.0,0.0,0.0,0.0,0.0,0.0,0.0,0.0,0.0,0.0,0.0,0.0,0.0,0.0,0.0,0.0,0.0,0.0,0.0,0.0,0.0,0.0,0.0,0.0,0.0,0.0,0.0,0.0,0.0,0.0,0.0,0.0,0.0,0.0,0.0,0.0,0.2199999988079071,0.0,0.0,0.0,0.0,0.030801651999354362
446,165,334000000,165.334,base_footprint,0.0002853432758269413,0.0038468075280415973,-0.07622046876898725,0.9970835274898955,0.0,0.0,0.0,0.0,0.0,0.0,0.0,0.0,0.0,0.0001625952125107208,-1.1585133627524436e-05,0.032042968538095594,0.0,0.0,0.0,0.0,0.0,0.0,0.0,0.0,0.0,-0.005547142223293329,0.008573597631055519,0.00033506813685455747,0.0,0.0,0.0,0.0,0.0,0.0,0.0,0.0,0.0,0.0,0.0,0.0,0.0,0.0,0.0,1.0,-2.3579995914784764,0.9394946024945742,-0.0010019772001760574,0.00028528469656288296,0.0038468574877095645,-0.07620449243101524,0.9970847484709825,1e-05,0.0,0.0,0.0,0.0,0.0,0.0,1e-05,0.0,0.0,0.0,0.0,0.0,0.0,1000000000000.0,0.0,0.0,0.0,0.0,0.0,0.0,1000000000000.0,0.0,0.0,0.0,0.0,0.0,0.0,1000000000000.0,0.0,0.0,0.0,0.0,0.0,0.0,0.001,0.21971770145558095,3.413453027886759e-06,0.0,0.0,0.0,0.03215205859982581,0.0,0.0,0.0,0.0,0.0,0.0,0.0,0.0,0.0,0.0,0.0,0.0,0.0,0.0,0.0,0.0,0.0,0.0,0.0,0.0,0.0,0.0,0.0,0.0,0.0,0.0,0.0,0.0,0.0,0.0,0.0,0.0,0.0,0.0,0.0,0.0,0.2199999988079071,0.0,0.0,0.0,0.0,-0.05727429687976838
479,165,367000000,165.367,base_footprint,0.00028584127699583437,0.0038442792082402206,-0.07564951287730104,0.9971270184954175,0.0,0.0,0.0,0.0,0.0,0.0,0.0,0.0,0.0,0.000230326207212327,-0.00017702220014843145,0.0335831868077156,0.0,0.0,0.0,0.0,0.0,0.0,0.0,0.0,0.0,0.05054236741739549,-0.00875285524661352,-0.0056793373361707245,0.0,0.0,0.0,0.0,0.0,0.0,0.0,0.0,0.0,0.0,0.0,0.0,0.0,0.0,0.0,1.0,-2.3508406658409657,0.93839785283931,-0.001001626986703006,0.00028578695757775044,0.0038442931345381327,-0.0756331759646842,0.9971282577630652,1e-05,0.0,0.0,0.0,0.0,0.0,0.0,1e-05,0.0,0.0,0.0,0.0,0.0,0.0,1000000000000.0,0.0,0.0,0.0,0.0,0.0,0.0,1000000000000.0,0.0,0.0,0.0,0.0,0.0,0.0,1000000000000.0,0.0,0.0,0.0,0.0,0.0,0.0,0.001,0.21962411207793425,-8.322669028129615e-06,0.0,0.0,0.0,0.032982111089470474,0.0,0.0,0.0,0.0,0.0,0.0,0.0,0.0,0.0,0.0,0.0,0.0,0.0,0.0,0.0,0.0,0.0,0.0,0.0,0.0,0.0,0.0,0.0,0.0,0.0,0.0,0.0,0.0,0.0,0.0,0.0,0.0,0.0,0.0,0.0,0.0,0.2199999988079071,0.0,0.0,0.0,0.0,-0.05727429687976838
512,165,400000000,165.4,base_footprint,0.00028353606988397575,0.0038461588300158487,-0.07513347188008651,0.9971660283387093,0.0,0.0,0.0,0.0,0.0,0.0,0.0,0.0,0.0,0.00022401964550308466,7.640071699186954e-05,0.03195139945646976,0.0,0.0,0.0,0.0,0.0,0.0,0.0,0.0,0.0,0.013667680458636323,0.002822082030553135,-0.002469710407037084,0.0,0.0,0.0,0.0,0.0,0.0,0.0,0.0,0.0,0.0,0.0,0.0,0.0,0.0,0.0,1.0,-2.3436717867795007,0.9373074495423415,-0.0010018462688073416,0.00028344789829060893,0.0038462622244144298,-0.0751177037842013,0.997167215918363,1e-05,0.0,0.0,0.0,0.0,0.0,0.0,1e-05,0.0,0.0,0.0,0.0,0.0,0.0,1000000000000.0,0.0,0.0,0.0,0.0,0.0,0.0,1000000000000.0,0.0,0.0,0.0,0.0,0.0,0.0,1000000000000.0,0.0,0.0,0.0,0.0,0.0,0.0,0.001,0.21967879946341326,-1.2527822402318145e-05,0.0,0.0,0.0,0.03188506930456295,0.0,0.0,0.0,0.0,0.0,0.0,0.0,0.0,0.0,0.0,0.0,0.0,0.0,0.0,0.0,0.0,0.0,0.0,0.0,0.0,0.0,0.0,0.0,0.0,0.0,0.0,0.0,0.0,0.0,0.0,0.0,0.0,0.0,0.0,0.0,0.0,0.2199999988079071,0.0,0.0,0.0,0.0,-0.05727429687976838
546,165,434000000,165.434,base_footprint,0.00028715856034150733,0.003846599824248335,-0.07578726243464322,0.9971165488860446,0.0,0.0,0.0,0.0,0.0,0.0,0.0,0.0,0.0,-0.0006559209372336144,-0.0002466751390073671,-0.05762588865224545,0.0,0.0,0.0,0.0,0.0,0.0,0.0,0.0,0.0,-0.0036175483676330125,-0.013140235011620236,-0.010243932922520217,0.0,0.0,0.0,0.0,0.0,0.0,0.0,0.0,0.0,0.0,0.0,0.0,0.0,0.0,0.0,1.0,-2.33627366854216,0.9361836291473628,-0.0010019307603738245,0.0002872760726541541,0.003846583749810005,-0.07581620277965005,0.997114348839685,1e-05,0.0,0.0,0.0,0.0,0.0,0.0,1e-05,0.0,0.0,0.0,0.0,0.0,0.0,1000000000000.0,0.0,0.0,0.0,0.0,0.0,0.0,1000000000000.0,0.0,0.0,0.0,0.0,0.0,0.0,1000000000000.0,0.0,0.0,0.0,0.0,0.0,0.0,0.001,0.22029494365012411,4.008831801421281e-05,0.0,0.0,0.0,-0.0578708395897075,0.0,0.0,0.0,0.0,0.0,0.0,0.0,0.0,0.0,0.0,0.0,0.0,0.0,0.0,0.0,0.0,0.0,0.0,0.0,0.0,0.0,0.0,0.0,0.0,0.0,0.0,0.0,0.0,0.0,0.0,0.0,0.0,0.0,0.0,0.0,0.0,0.2067803591489792,2.8449676392483525e-05,0.0,0.0,0.0,-0.05445222556591033
579,165,467000000,165.467,base_footprint,0.0002876261569376699,0.0038426188932232618,-0.07688641416206382,0.9970324121454303,0.0,0.0,0.0,0.0,0.0,0.0,0.0,0.0,0.0,-0.0019128383120445174,-0.001089128028090962,-0.0787087435805115,0.0,0.0,0.0,0.0,0.0,0.0,0.0,0.0,0.0,-0.026074206097706866,-0.00952833339049865,0.005853700340492162,0.0,0.0,0.0,0.0,0.0,0.0,0.0,0.0,0.0,0.0,0.0,0.0,0.0,0.0,0.0,1.0,-2.3291087814789826,0.9350810657896373,-0.0010013536557251998,0.0002872782782367028,0.0038419315305874726,-0.07692587647975721,0.997029370962123,1e-05,0.0,0.0,0.0,0.0,0.0,0.0,1e-05,0.0,0.0,0.0,0.0,0.0,0.0,1000000000000.0,0.0,0.0,0.0,0.0,0.0,0.0,1000000000000.0,0.0,0.0,0.0,0.0,0.0,0.0,1000000000000.0,0.0,0.0,0.0,0.0,0.0,0.0,0.001,0.21882672664402295,2.8449676915322242e-05,0.0,0.0,0.0,-0.07906761358802143,0.0,0.0,0.0,0.0,0.0,0.0,0.0,0.0,0.0,0.0,0.0,0.0,0.0,0.0,0.0,0.0,0.0,0.0,0.0,0.0,0.0,0.0,0.0,0.0,0.0,0.0,0.0,0.0,0.0,0.0,0.0,0.0,0.0,0.0,0.0,0.0,0.2067803591489792,2.8449676392483525e-05,0.0,0.0,0.0,-0.05445222556591033
612,165,500000000,165.5,base_footprint,0.00029095965453796027,0.003839368445074384,-0.07817396388376346,0.9969322975825001,0.0,0.0,0.0,0.0,0.0,0.0,0.0,0.0,0.0,-0.0005569675729321658,-0.00013716897923704658,-0.07040700956810364,0.0,0.0,0.0,0.0,0.0,0.0,0.0,0.0,0.0,0.05402604670618079,-0.034576228017058674,-0.0005776878129890515,0.0,0.0,0.0,0.0,0.0,0.0,0.0,0.0,0.0,0.0,0.0,0.0,0.0,0.0,0.0,1.0,-2.321970408242193,0.9339642720583957,-0.001001117512576838,0.00029109848849125623,0.0038393319054836578,-0.0782086921819498,0.9969295738713837,1e-05,0.0,0.0,0.0,0.0,0.0,0.0,1e-05,0.0,0.0,0.0,0.0,0.0,0.0,1000000000000.0,0.0,0.0,0.0,0.0,0.0,0.0,1000000000000.0,0.0,0.0,0.0,0.0,0.0,0.0,1000000000000.0,0.0,0.0,0.0,0.0,0.0,0.0,0.001,0.2195479859307851,2.634104521406777e-05,0.0,0.0,0.0,-0.06951017189983465,0.0,0.0,0.0,0.0,0.0,0.0,0.0,0.0,0.0,0.0,0.0,0.0,0.0,0.0,0.0,0.0,0.0,0.0,0.0,0.0,0.0,0.0,0.0,0.0,0.0,0.0,0.0,0.0,0.0,0.0,0.0,0.0,0.0,0.0,0.0,0.0,0.2067803591489792,2.8449676392483525e-05,0.0,0.0,0.0,-0.05445222556591033
646,165,534000000,165.534,base_footprint,0.0002974021512548541,0.003844990099362438,-0.07823974696399984,0.9969271134832804,0.0,0.0,0.0,0.0,0.0,0.0,0.0,0.0,0.0,-0.0004737068421427317,-0.0010089343689573178,0.01896232284282897,0.0,0.0,0.0,0.0,0.0,0.0,0.0,0.0,0.0,-0.30312605955063626,0.10738762446378901,-0.035368811849145115,0.0,0.0,0.0,0.0,0.0,0.0,0.0,0.0,0.0,0.0,0.0,0.0,0.0,0.0,0.0,1.0,-2.315003578706778,0.9328613682697584,-0.0010017433257016421,0.00029723555468580567,0.0038449840314759396,-0.07823276656587087,0.9969276613597764,1e-05,0.0,0.0,0.0,0.0,0.0,0.0,1e-05,0.0,0.0,0.0,0.0,0.0,0.0,1000000000000.0,0.0,0.0,0.0,0.0,0.0,0.0,1000000000000.0,0.0,0.0,0.0,0.0,0.0,0.0,1000000000000.0,0.0,0.0,0.0,0.0,0.0,0.0,0.001,0.19798119795695646,-1.0456301117900413e-05,0.0,0.0,0.0,0.014102453007500943,0.0,0.0,0.0,0.0,0.0,0.0,0.0,0.0,0.0,0.0,0.0,0.0,0.0,0.0,0.0,0.0,0.0,0.0,0.0,0.0,0.0,0.0,0.0,0.0,0.0,0.0,0.0,0.0,0.0,0.0,0.0,0.0,0.0,0.0,0.0,0.0,0.2199999988079071,2.214110645581968e-05,0.0,0.0,0.0,-0.04723422601819038
679,165,567000000,165.567,base_footprint,0.00029693898739812963,0.003841652533927982,-0.07890075106738902,0.99687502978761,0.0,0.0,0.0,0.0,0.0,0.0,0.0,0.0,0.0,-0.0006284429727188998,-0.0006031839486374117,-0.05551538499687759,0.0,0.0,0.0,0.0,0.0,0.0,0.0,0.0,0.0,-0.00018665070886838284,-0.01220159759826926,-0.0055550057805747515,0.0,0.0,0.0,0.0,0.0,0.0,0.0,0.0,0.0,0.0,0.0,0.0,0.0,0.0,0.0,1.0,-2.3083200123729344,0.9318026295693497,-0.0010013925696701238,0.0002969818648148789,0.003841458233343273,-0.0789283412287742,0.9968728464309217,1e-05,0.0,0.0,0.0,0.0,0.0,0.0,1e-05,0.0,0.0,0.0,0.0,0.0,0.0,1000000000000.0,0.0,0.0,0.0,0.0,0.0,0.0,1000000000000.0,0.0,0.0,0.0,0.0,0.0,0.0,1000000000000.0,0.0,0.0,0.0,0.0,0.0,0.0,0.001,0.20721184485732924,2.214110586400836e-05,0.0,0.0,0.0,-0.055439352355285756,0.0,0.0,0.0,0.0,0.0,0.0,0.0,0.0,0.0,0.0,0.0,0.0,0.0,0.0,0.0,0.0,0.0,0.0,0.0,0.0,0.0,0.0,0.0,0.0,0.0,0.0,0.0,0.0,0.0,0.0,0.0,0.0,0.0,0.0,0.0,0.0,0.2199999988079071,2.214110645581968e-05,0.0,0.0,0.0,-0.04723422601819038
712,165,600000000,165.6,base_footprint,0.00030029468845356526,0.0038415841248797987,-0.07980576746755078,0.9968029853152663,0.0,0.0,0.0,0.0,0.0,0.0,0.0,0.0,0.0,-0.0003591789669464502,-0.00010437327792793697,-0.05518494845758017,0.0,0.0,0.0,0.0,0.0,0.0,0.0,0.0,0.0,-0.0023798861607286716,-0.011246099848132367,-0.00011300605506741169,0.0,0.0,0.0,0.0,0.0,0.0,0.0,0.0,0.0,0.0,0.0,0.0,0.0,0.0,0.0,1.0,-2.301567136945383,0.930720744268043,-0.0010014196981230593,0.00030039402034650654,0.0038415761591214835,-0.07983321829104655,0.9968007871753214,1e-05,0.0,0.0,0.0,0.0,0.0,0.0,1e-05,0.0,0.0,0.0,0.0,0.0,0.0,1000000000000.0,0.0,0.0,0.0,0.0,0.0,0.0,1000000000000.0,0.0,0.0,0.0,0.0,0.0,0.0,1000000000000.0,0.0,0.0,0.0,0.0,0.0,0.0,0.001,0.20725849159318688,2.0932089988309754e-05,0.0,0.0,0.0,-0.055189267105047374,0.0,0.0,0.0,0.0,0.0,0.0,0.0,0.0,0.0,0.0,0.0,0.0,0.0,0.0,0.0,0.0,0.0,0.0,0.0,0.0,0.0,0.0,0.0,0.0,0.0,0.0,0.0,0.0,0.0,0.0,0.0,0.0,0.0,0.0,0.0,0.0,0.2199999988079071,2.214110645581968e-05,0.0,0.0,0.0,-0.04723422601819038
746,165,634000000,165.634,base_footprint,0.00030479809311538173,0.0038424102362491917,-0.08098456251410437,0.996707902856247,0.0,0.0,0.0,0.0,0.0,0.0,0.0,0.0,0.0,-0.00028019045193568526,0.0003583476723207862,-0.047578312981870916,0.0,0.0,0.0,0.0,0.0,0.0,0.0,0.0,0.0,-0.004834027481278485,-0.007713841030589352,0.017214379070730902,0.0,0.0,0.0,0.0,0.0,0.0,0.0,0.0,0.0,0.0,0.0,0.0,0.0,0.0,0.0,1.0,-2.2942997810692694,0.9295401251936827,-0.0010015171054124777,0.0003048431980378953,0.003842400989990617,-0.08100825669815688,0.9967059773935252,1e-05,0.0,0.0,0.0,0.0,0.0,0.0,1e-05,0.0,0.0,0.0,0.0,0.0,0.0,1000000000000.0,0.0,0.0,0.0,0.0,0.0,0.0,1000000000000.0,0.0,0.0,0.0,0.0,0.0,0.0,1000000000000.0,0.0,0.0,0.0,0.0,0.0,0.0,0.001,0.2204920509578885,1.586348047920988e-05,0.0,0.0,0.0,-0.047683698247234375,0.0,0.0,0.0,0.0,0.0,0.0,0.0,0.0,0.0,0.0,0.0,0.0,0.0,0.0,0.0,0.0,0.0,0.0,0.0,0.0,0.0,0.0,0.0,0.0,0.0,0.0,0.0,0.0,0.0,0.0,0.0,0.0,0.0,0.0,0.0,0.0,0.2199999988079071,1.621336559765041e-05,0.0,0.0,0.0,-0.023629792034626007
779,165,667000000,165.667,base_footprint,0.00030734546640425814,0.0038415458953023887,-0.08177471536914867,0.9966433885749675,0.0,0.0,0.0,0.0,0.0,0.0,0.0,0.0,0.0,-0.0004792299096772191,-5.948701359457774e-05,-0.04823932759162002,0.0,0.0,0.0,0.0,0.0,0.0,0.0,0.0,0.0,-0.002178984296924374,-0.010429349956462528,0.00010486223535753577,0.0,0.0,0.0,0.0,0.0,0.0,0.0,0.0,0.0,0.0,0.0,0.0,0.0,0.0,0.0,1.0,-2.287120505154966,0.9283599158115922,-0.0010014996332370664,0.00030742852637832135,0.00384154640922002,-0.08179868977800776,0.9966414211538112,1e-05,0.0,0.0,0.0,0.0,0.0,0.0,1e-05,0.0,0.0,0.0,0.0,0.0,0.0,1000000000000.0,0.0,0.0,0.0,0.0,0.0,0.0,1000000000000.0,0.0,0.0,0.0,0.0,0.0,0.0,1000000000000.0,0.0,0.0,0.0,0.0,0.0,0.0,0.001,0.2205004712259916,1.6213364917340434e-05,0.0,0.0,0.0,-0.04824518009106224,0.0,0.0,0.0,0.0,0.0,0.0,0.0,0.0,0.0,0.0,0.0,0.0,0.0,0.0,0.0,0.0,0.0,0.0,0.0,0.0,0.0,0.0,0.0,0.0,0.0,0.0,0.0,0.0,0.0,0.0,0.0,0.0,0.0,0.0,0.0,0.0,0.2199999988079071,1.621336559765041e-05,0.0,0.0,0.0,-0.023629792034626007
812,165,700000000,165.7,base_footprint,0.0003101103553895905,0.0038419180075403613,-0.08256672896839125,0.9965780846301263,0.0,0.0,0.0,0.0,0.0,0.0,0.0,0.0,0.0,-0.0004972580488724905,-2.624591774786416e-05,-0.04833602100042492,0.0,0.0,0.0,0.0,0.0,0.0,0.0,0.0,0.0,-0.002312807787493887,-0.010468551291108344,-8.487713144400086e-05,0.0,0.0,0.0,0.0,0.0,0.0,0.0,0.0,0.0,0.0,0.0,0.0,0.0,0.0,0.0,1.0,-2.2799418427455547,0.9271680868986487,-0.0010015858727635725,0.0003101929794906891,0.00384193584648772,-0.08259075394784075,0.9965760937688575,1e-05,0.0,0.0,0.0,0.0,0.0,0.0,1e-05,0.0,0.0,0.0,0.0,0.0,0.0,1000000000000.0,0.0,0.0,0.0,0.0,0.0,0.0,1000000000000.0,0.0,0.0,0.0,0.0,0.0,0.0,1000000000000.0,0.0,0.0,0.0,0.0,0.0,0.0,0.001,0.22054301848047828,1.6180815867392062e-05,0.0,0.0,0.0,-0.04834019503940385,0.0,0.0,0.0,0.0,0.0,0.0,0.0,0.0,0.0,0.0,0.0,0.0,0.0,0.0,0.0,0.0,0.0,0.0,0.0,0.0,0.0,0.0,0.0,0.0,0.0,0.0,0.0,0.0,0.0,0.0,0.0,0.0,0.0,0.0,0.0,0.0,0.2199999988079071,1.621336559765041e-05,0.0,0.0,0.0,-0.023629792034626007
846,165,734000000,165.734,base_footprint,0.0003115162536813081,0.0038426160890736496,-0.08300049907276416,0.9965420484921285,0.0,0.0,0.0,0.0,0.0,0.0,0.0,0.0,0.0,-0.00033987990773711206,-5.433550598039341e-05,-0.024479545151754756,0.0,0.0,0.0,0.0,0.0,0.0,0.0,0.0,0.0,-0.0020970764057144284,-0.005017919184345079,-0.00023261010442879684,0.0,0.0,0.0,0.0,0.0,0.0,0.0,0.0,0.0,0.0,0.0,0.0,0.0,0.0,0.0,1.0,-2.272553181782949,0.9259318412724613,-0.001001696588539356,0.00031155652424905286,0.0038426340596920032,-0.08301264446771303,0.9965410367639119,1e-05,0.0,0.0,0.0,0.0,0.0,0.0,1e-05,0.0,0.0,0.0,0.0,0.0,0.0,1000000000000.0,0.0,0.0,0.0,0.0,0.0,0.0,1000000000000.0,0.0,0.0,0.0,0.0,0.0,0.0,1000000000000.0,0.0,0.0,0.0,0.0,0.0,0.0,0.001,0.22033807856510995,5.2926226409011345e-06,0.0,0.0,0.0,-0.02446730572387511,0.0,0.0,0.0,0.0,0.0,0.0,0.0,0.0,0.0,0.0,0.0,0.0,0.0,0.0,0.0,0.0,0.0,0.0,0.0,0.0,0.0,0.0,0.0,0.0,0.0,0.0,0.0,0.0,0.0,0.0,0.0,0.0,0.0,0.0,0.0,0.0,0.2199999988079071,4.574218110064976e-06,0.0,0.0,0.0,-0.01570564694702625
879,165,767000000,165.767,base_footprint,0.00031291400568812973,0.003843238145583848,-0.08339764446409996,0.9965088883212337,0.0,0.0,0.0,0.0,0.0,0.0,0.0,0.0,0.0,-0.00031640891668776287,-2.402229868291574e-05,-0.023930683583003952,0.0,0.0,0.0,0.0,0.0,0.0,0.0,0.0,0.0,-0.002795985722229865,-0.00459523657349638,-0.00017891556116141115,0.0,0.0,0.0,0.0,0.0,0.0,0.0,0.0,0.0,0.0,0.0,0.0,0.0,0.0,0.0,1.0,-2.2653835388978387,0.9247262101214664,-0.0010017937742762967,0.00031295766312849953,0.003843257957623735,-0.08340954123372393,0.9965078925211542,1e-05,0.0,0.0,0.0,0.0,0.0,0.0,1e-05,0.0,0.0,0.0,0.0,0.0,0.0,1000000000000.0,0.0,0.0,0.0,0.0,0.0,0.0,1000000000000.0,0.0,0.0,0.0,0.0,0.0,0.0,1000000000000.0,0.0,0.0,0.0,0.0,0.0,0.0,0.001,0.22031413310005454,4.5742179710442366e-06,0.0,0.0,0.0,-0.023910778823896743,0.0,0.0,0.0,0.0,0.0,0.0,0.0,0.0,0.0,0.0,0.0,0.0,0.0,0.0,0.0,0.0,0.0,0.0,0.0,0.0,0.0,0.0,0.0,0.0,0.0,0.0,0.0,0.0,0.0,0.0,0.0,0.0,0.0,0.0,0.0,0.0,0.2199999988079071,4.574218110064976e-06,0.0,0.0,0.0,-0.01570564694702625
912,165,800000000,165.8,base_footprint,0.0003145232954816962,0.0038439550678443257,-0.08378316636194164,0.9964765456943281,0.0,0.0,0.0,0.0,0.0,0.0,0.0,0.0,0.0,-0.0002496910123183386,2.6506088571672918e-05,-0.022740198927210454,0.0,0.0,0.0,0.0,0.0,0.0,0.0,0.0,0.0,-0.007290750033827381,-0.002806554144856444,-9.07897110185669e-05,0.0,0.0,0.0,0.0,0.0,0.0,0.0,0.0,0.0,0.0,0.0,0.0,0.0,0.0,0.0,1.0,-2.258216231021247,0.9235154392047678,-0.0010019008440693318,0.00031457720519803507,0.0038439876938429567,-0.08379449345494122,0.996475593111252,1e-05,0.0,0.0,0.0,0.0,0.0,0.0,1e-05,0.0,0.0,0.0,0.0,0.0,0.0,1000000000000.0,0.0,0.0,0.0,0.0,0.0,0.0,1000000000000.0,0.0,0.0,0.0,0.0,0.0,0.0,1000000000000.0,0.0,0.0,0.0,0.0,0.0,0.0,0.001,0.22022649153629892,3.256221033504092e-05,0.0,0.0,0.0,-0.02266207312952601,0.0,0.0,0.0,0.0,0.0,0.0,0.0,0.0,0.0,0.0,0.0,0.0,0.0,0.0,0.0,0.0,0.0,0.0,0.0,0.0,0.0,0.0,0.0,0.0,0.0,0.0,0.0,0.0,0.0,0.0,0.0,0.0,0.0,0.0,0.0,0.0,0.2199999988079071,4.574218110064976e-06,0.0,0.0,0.0,-0.01570564694702625
946,165,834000000,165.834,base_footprint,0.00031673795774128714,0.0038433579358500636,-0.08404464386720595,0.9964545278707292,0.0,0.0,0.0,0.0,0.0,0.0,0.0,0.0,0.0,-5.5971137865467614e-05,-0.0003155815517118,-0.011890296986384882,0.0,0.0,0.0,0.0,0.0,0.0,0.0,0.0,0.0,-0.007075819711566177,0.00014426123076999704,0.0007003119509252802,0.0,0.0,0.0,0.0,0.0,0.0,0.0,0.0,0.0,0.0,0.0,0.0,0.0,0.0,0.0,1.0,-2.250835578103172,0.9222634220318806,-0.0010017998819383707,0.0003168612259503819,0.0038432324729719977,-0.08405065394102744,0.9964540213854364,1e-05,0.0,0.0,0.0,0.0,0.0,0.0,1e-05,0.0,0.0,0.0,0.0,0.0,0.0,1000000000000.0,0.0,0.0,0.0,0.0,0.0,0.0,1000000000000.0,0.0,0.0,0.0,0.0,0.0,0.0,1000000000000.0,0.0,0.0,0.0,0.0,0.0,0.0,0.001,0.21991704275353377,5.886890371141484e-06,0.0,0.0,0.0,-0.01186169092552416,0.0,0.0,0.0,0.0,0.0,0.0,0.0,0.0,0.0,0.0,0.0,0.0,0.0,0.0,0.0,0.0,0.0,0.0,0.0,0.0,0.0,0.0,0.0,0.0,0.0,0.0,0.0,0.0,0.0,0.0,0.0,0.0,0.0,0.0,0.0,0.0,0.2199999988079071,1.6607987163297366e-06,0.0,0.0,0.0,-0.02160936407744884
979,165,867000000,165.867,base_footprint,0.000318223652647843,0.0038432713078957836,-0.08427388448802535,0.9964351661762344,0.0,0.0,0.0,0.0,0.0,0.0,0.0,0.0,0.0,-5.297329197824657e-05,-0.0002716112176294301,-0.013357684509276047,0.0,0.0,0.0,0.0,0.0,0.0,0.0,0.0,0.0,-0.0021722116087728458,-0.0023182944230265077,-0.0009873982254491884,0.0,0.0,0.0,0.0,0.0,0.0,0.0,0.0,0.0,0.0,0.0,0.0,0.0,0.0,0.0,1.0,-2.24367618335618,0.921045349482763,-0.0010018051318358874,0.00031831847018457747,0.003843184307408831,-0.08428069713584518,0.9964345902757626,1e-05,0.0,0.0,0.0,0.0,0.0,0.0,1e-05,0.0,0.0,0.0,0.0,0.0,0.0,1000000000000.0,0.0,0.0,0.0,0.0,0.0,0.0,1000000000000.0,0.0,0.0,0.0,0.0,0.0,0.0,1000000000000.0,0.0,0.0,0.0,0.0,0.0,0.0,0.001,0.2200190231514742,1.6607986773192751e-06,0.0,0.0,0.0,-0.013404246690625874,0.0,0.0,0.0,0.0,0.0,0.0,0.0,0.0,0.0,0.0,0.0,0.0,0.0,0.0,0.0,0.0,0.0,0.0,0.0,0.0,0.0,0.0,0.0,0.0,0.0,0.0,0.0,0.0,0.0,0.0,0.0,0.0,0.0,0.0,0.0,0.0,0.2199999988079071,1.6607987163297366e-06,0.0,0.0,0.0,-0.02160936407744884
1012,165,900000000,165.9,base_footprint,0.000319956870605237,0.00384333160164932,-0.08450690720650969,0.996415429960913,0.0,0.0,0.0,0.0,0.0,0.0,0.0,0.0,0.0,-3.3098797953649595e-05,-4.220274666691528e-05,-0.014208457788619976,0.0,0.0,0.0,0.0,0.0,0.0,0.0,0.0,0.0,-0.0026797418454624026,-0.0025977973368299114,5.744204760697764e-05,0.0,0.0,0.0,0.0,0.0,0.0,0.0,0.0,0.0,0.0,0.0,0.0,0.0,0.0,0.0,1.0,-2.2365184286455584,0.9198240504251038,-0.001001824329070023,0.0003200165932669951,0.003843341687783029,-0.08451412721692048,0.9964148175407737,1e-05,0.0,0.0,0.0,0.0,0.0,0.0,1e-05,0.0,0.0,0.0,0.0,0.0,0.0,1000000000000.0,0.0,0.0,0.0,0.0,0.0,0.0,1000000000000.0,0.0,0.0,0.0,0.0,0.0,0.0,1000000000000.0,0.0,0.0,0.0,0.0,0.0,0.0,0.001,0.22001390030744195,1.6177384213056367e-06,0.0,0.0,0.0,-0.01423741921998151,0.0,0.0,0.0,0.0,0.0,0.0,0.0,0.0,0.0,0.0,0.0,0.0,0.0,0.0,0.0,0.0,0.0,0.0,0.0,0.0,0.0,0.0,0.0,0.0,0.0,0.0,0.0,0.0,0.0,0.0,0.0,0.0,0.0,0.0,0.0,0.0,0.2199999988079071,1.6607987163297366e-06,0.0,0.0,0.0,-0.02160936407744884
1046,165,934000000,165.934,base_footprint,0.0003224298168715068,0.0038441505820650144,-0.08489299239971704,0.9963826064252312,0.0,0.0,0.0,0.0,0.0,0.0,0.0,0.0,0.0,-0.00031369085860266215,-5.962336709595911e-05,-0.028321528787674015,0.0,0.0,0.0,0.0,0.0,0.0,0.0,0.0,0.0,-0.046831701874223856,0.008611236197704115,-0.0012476992056769907,0.0,0.0,0.0,0.0,0.0,0.0,0.0,0.0,0.0,0.0,0.0,0.0,0.0,0.0,0.0,1.0,-2.2291483901784135,0.918562487855382,-0.0010019339023845386,0.00032249877235687464,0.003844169724088302,-0.08490754682479602,0.9963813661675278,1e-05,0.0,0.0,0.0,0.0,0.0,0.0,1e-05,0.0,0.0,0.0,0.0,0.0,0.0,1000000000000.0,0.0,0.0,0.0,0.0,0.0,0.0,1000000000000.0,0.0,0.0,0.0,0.0,0.0,0.0,1000000000000.0,0.0,0.0,0.0,0.0,0.0,0.0,0.001,0.21953909374898908,2.8614273705415694e-05,0.0,0.0,0.0,-0.02906425689806227,0.0,0.0,0.0,0.0,0.0,0.0,0.0,0.0,0.0,0.0,0.0,0.0,0.0,0.0,0.0,0.0,0.0,0.0,0.0,0.0,0.0,0.0,0.0,0.0,0.0,0.0,0.0,0.0,0.0,0.0,0.0,0.0,0.0,0.0,0.0,0.0,0.2199999988079071,2.5812236344791017e-05,0.0,0.0,0.0,0.0
1079,165,967000000,165.967,base_footprint,0.0003194997244637828,0.0038374900398890676,-0.08556307217932389,0.9963253144778345,0.0,0.0,0.0,0.0,0.0,0.0,0.0,0.0,0.0,-0.0004600610440773239,-0.00021789482902110204,-0.04513941134230117,0.0,0.0,0.0,0.0,0.0,0.0,0.0,0.0,0.0,0.01006174427342194,-0.014669440475488613,-0.0001114789587794853,0.0,0.0,0.0,0.0,0.0,0.0,0.0,0.0,0.0,0.0,0.0,0.0,0.0,0.0,0.0,1.0,-2.222035975099573,0.9173374910319213,-0.0010011408345350602,0.0003195747158872763,0.00383741666023383,-0.0855855191129752,0.9963233867693458,1e-05,0.0,0.0,0.0,0.0,0.0,0.0,1e-05,0.0,0.0,0.0,0.0,0.0,0.0,1000000000000.0,0.0,0.0,0.0,0.0,0.0,0.0,1000000000000.0,0.0,0.0,0.0,0.0,0.0,0.0,1000000000000.0,0.0,0.0,0.0,0.0,0.0,0.0,0.001,0.2184398512625433,2.581223616893863e-05,0.0,0.0,0.0,-0.044907488803803894,0.0,0.0,0.0,0.0,0.0,0.0,0.0,0.0,0.0,0.0,0.0,0.0,0.0,0.0,0.0,0.0,0.0,0.0,0.0,0.0,0.0,0.0,0.0,0.0,0.0,0.0,0.0,0.0,0.0,0.0,0.0,0.0,0.0,0.0,0.0,0.0,0.2199999988079071,2.5812236344791017e-05,0.0,0.0,0.0,0.0
1112,166,0,166.0,base_footprint,0.00032351725627945594,0.003838103025357545,-0.08613573893956118,0.9962759651718431,0.0,0.0,0.0,0.0,0.0,0.0,0.0,0.0,0.0,0.0010185677750002827,0.0006426410396395348,-0.021446027069484102,0.0,0.0,0.0,0.0,0.0,0.0,0.0,0.0,0.0,0.029796252633459593,-0.01691830489595606,-0.007954027456001222,0.0,0.0,0.0,0.0,0.0,0.0,0.0,0.0,0.0,0.0,0.0,0.0,0.0,0.0,0.0,1.0,-2.214908033423879,0.9160994473391073,-0.0010013254363216498,0.000323938801022682,0.0038386638960845785,-0.08614630790868766,0.9962750490486287,1e-05,0.0,0.0,0.0,0.0,0.0,0.0,1e-05,0.0,0.0,0.0,0.0,0.0,0.0,1000000000000.0,0.0,0.0,0.0,0.0,0.0,0.0,1000000000000.0,0.0,0.0,0.0,0.0,0.0,0.0,1000000000000.0,0.0,0.0,0.0,0.0,0.0,0.0,0.001,0.22016240101458992,1.6322048416797519e-06,0.0,0.0,0.0,-0.02125914931588357,0.0,0.0,0.0,0.0,0.0,0.0,0.0,0.0,0.0,0.0,0.0,0.0,0.0,0.0,0.0,0.0,0.0,0.0,0.0,0.0,0.0,0.0,0.0,0.0,0.0,0.0,0.0,0.0,0.0,0.0,0.0,0.0,0.0,0.0,0.0,0.0,0.2199999988079071,2.5812236344791017e-05,0.0,0.0,0.0,0.0
1146,166,34000000,166.034,base_footprint,0.0003249439810853537,0.003839864962396065,-0.08616330343747655,0.9962735743706249,0.0,0.0,0.0,0.0,0.0,0.0,0.0,0.0,0.0,0.00010080258405728608,-0.00012502056444070627,-0.0006305017258547628,0.0,0.0,0.0,0.0,0.0,0.0,0.0,0.0,0.0,0.00016208213887490092,-0.000126472215587325,0.0010101826730289749,0.0,0.0,0.0,0.0,0.0,0.0,0.0,0.0,0.0,0.0,0.0,0.0,0.0,0.0,0.0,1.0,-2.207542050456825,0.9148157864684109,-0.0010014505859956176,0.00032494017537896815,0.003839867507510661,-0.08616358155968218,0.9962735503084559,1e-05,0.0,0.0,0.0,0.0,0.0,0.0,1e-05,0.0,0.0,0.0,0.0,0.0,0.0,1000000000000.0,0.0,0.0,0.0,0.0,0.0,0.0,1000000000000.0,0.0,0.0,0.0,0.0,0.0,0.0,1000000000000.0,0.0,0.0,0.0,0.0,0.0,0.0,0.001,0.21994326333342004,1.8612744975346485e-06,0.0,0.0,0.0,-0.0006500982679289697,0.0,0.0,0.0,0.0,0.0,0.0,0.0,0.0,0.0,0.0,0.0,0.0,0.0,0.0,0.0,0.0,0.0,0.0,0.0,0.0,0.0,0.0,0.0,0.0,0.0,0.0,0.0,0.0,0.0,0.0,0.0,0.0,0.0,0.0,0.0,0.0,0.2199999988079071,5.717075737265986e-07,0.0,0.0,0.0,0.0
1179,166,67000000,166.067,base_footprint,0.00032467624806415107,0.0038395900334985806,-0.08617385008508031,0.9962726633282792,0.0,0.0,0.0,0.0,0.0,0.0,0.0,0.0,0.0,5.16331478530718e-05,-0.0001665928263638645,-0.0008137235952152175,0.0,0.0,0.0,0.0,0.0,0.0,0.0,0.0,0.0,0.001138295409259624,-0.0006652064517571855,-4.243529295888633e-07,0.0,0.0,0.0,0.0,0.0,0.0,0.0,0.0,0.0,0.0,0.0,0.0,0.0,0.0,0.0,1.0,-2.200391005082253,0.9135694828658285,-0.0010014207604538694,0.0003246698341538775,0.0038395889858258334,-0.08617419681911212,0.9962726333431525,1e-05,0.0,0.0,0.0,0.0,0.0,0.0,1e-05,0.0,0.0,0.0,0.0,0.0,0.0,1000000000000.0,0.0,0.0,0.0,0.0,0.0,0.0,1000000000000.0,0.0,0.0,0.0,0.0,0.0,0.0,1000000000000.0,0.0,0.0,0.0,0.0,0.0,0.0,0.001,0.21998138603238615,5.717075686612061e-07,0.0,0.0,0.0,-0.0008170160243281773,0.0,0.0,0.0,0.0,0.0,0.0,0.0,0.0,0.0,0.0,0.0,0.0,0.0,0.0,0.0,0.0,0.0,0.0,0.0,0.0,0.0,0.0,0.0,0.0,0.0,0.0,0.0,0.0,0.0,0.0,0.0,0.0,0.0,0.0,0.0,0.0,0.2199999988079071,5.717075737265986e-07,0.0,0.0,0.0,0.0
1212,166,100000000,166.1,base_footprint,0.000324461602420142,0.00383969870215818,-0.08618609204440397,0.9962716040200378,0.0,0.0,0.0,0.0,0.0,0.0,0.0,0.0,0.0,3.0163360022325167e-05,-0.00015831652652562953,-0.0009363190485345293,0.0,0.0,0.0,0.0,0.0,0.0,0.0,0.0,0.0,0.0012301520924804165,-0.0006363856396403058,-5.312300481288793e-05,0.0,0.0,0.0,0.0,0.0,0.0,0.0,0.0,0.0,0.0,0.0,0.0,0.0,0.0,0.0,1.0,-2.1932387626403433,0.9123227771710676,-0.001001439148457954,0.0003244548910545202,0.0038397071453245436,-0.08618648837755524,0.9962715697033653,1e-05,0.0,0.0,0.0,0.0,0.0,0.0,1e-05,0.0,0.0,0.0,0.0,0.0,0.0,1000000000000.0,0.0,0.0,0.0,0.0,0.0,0.0,1000000000000.0,0.0,0.0,0.0,0.0,0.0,0.0,1000000000000.0,0.0,0.0,0.0,0.0,0.0,0.0,0.001,0.22002542092118718,-5.722424303161722e-07,0.0,0.0,0.0,-0.000939301590195897,0.0,0.0,0.0,0.0,0.0,0.0,0.0,0.0,0.0,0.0,0.0,0.0,0.0,0.0,0.0,0.0,0.0,0.0,0.0,0.0,0.0,0.0,0.0,0.0,0.0,0.0,0.0,0.0,0.0,0.0,0.0,0.0,0.0,0.0,0.0,0.0,0.2199999988079071,5.717075737265986e-07,0.0,0.0,0.0,0.0
1246,166,134000000,166.134,base_footprint,0.0003242158531778381,0.0038400703511220088,-0.08620038946924388,0.9962703657136098,0.0,0.0,0.0,0.0,0.0,0.0,0.0,0.0,0.0,-0.0001049258625019342,-9.50866571778569e-05,-0.0010222348278424783,0.0,0.0,0.0,0.0,0.0,0.0,0.0,0.0,0.0,0.0012061560624661352,-0.0006416878504620718,-1.2535443551115908e-05,0.0,0.0,0.0,0.0,0.0,0.0,0.0,0.0,0.0,0.0,0.0,0.0,0.0,0.0,0.0,1.0,-2.185868485296954,0.9110378585957241,-0.001001491897374935,0.0003242087534619055,0.003840086940853111,-0.08620083567598379,0.9962703270446897,1e-05,0.0,0.0,0.0,0.0,0.0,0.0,1e-05,0.0,0.0,0.0,0.0,0.0,0.0,1000000000000.0,0.0,0.0,0.0,0.0,0.0,0.0,1000000000000.0,0.0,0.0,0.0,0.0,0.0,0.0,1000000000000.0,0.0,0.0,0.0,0.0,0.0,0.0,0.001,0.22006957063731014,-1.324964243036575e-06,0.0,0.0,0.0,-0.0010265496805858683,0.0,0.0,0.0,0.0,0.0,0.0,0.0,0.0,0.0,0.0,0.0,0.0,0.0,0.0,0.0,0.0,0.0,0.0,0.0,0.0,0.0,0.0,0.0,0.0,0.0,0.0,0.0,0.0,0.0,0.0,0.0,0.0,0.0,0.0,0.0,0.0,0.20684807002544403,0.0,0.0,0.0,0.0,0.0
1279,166,167000000,166.167,base_footprint,0.00032401800613133413,0.0038406559194897037,-0.08621586188610432,0.9962690246784129,0.0,0.0,0.0,0.0,0.0,0.0,0.0,0.0,0.0,-0.0001329588816059032,-8.5989537523121e-05,-0.001106448605413939,0.0,0.0,0.0,0.0,0.0,0.0,0.0,0.0,0.0,0.0010709703312911172,-0.0006303740784989446,-8.896066262396483e-05,0.0,0.0,0.0,0.0,0.0,0.0,0.0,0.0,0.0,0.0,0.0,0.0,0.0,0.0,0.0,1.0,-2.178713698575618,0.9097902832019558,-0.0010015733875674455,0.00032401065111215525,0.003840679207722404,-0.08621634939426184,0.9962689824025678,1e-05,0.0,0.0,0.0,0.0,0.0,0.0,1e-05,0.0,0.0,0.0,0.0,0.0,0.0,1000000000000.0,0.0,0.0,0.0,0.0,0.0,0.0,1000000000000.0,0.0,0.0,0.0,0.0,0.0,0.0,1000000000000.0,0.0,0.0,0.0,0.0,0.0,0.0,0.001,0.2201134584217985,-1.4506635464262008e-06,0.0,0.0,0.0,-0.001109263086315964,0.0,0.0,0.0,0.0,0.0,0.0,0.0,0.0,0.0,0.0,0.0,0.0,0.0,0.0,0.0,0.0,0.0,0.0,0.0,0.0,0.0,0.0,0.0,0.0,0.0,0.0,0.0,0.0,0.0,0.0,0.0,0.0,0.0,0.0,0.0,0.0,0.20684807002544403,0.0,0.0,0.0,0.0,0.0
1312,166,200000000,166.2,base_footprint,0.00032380715744816953,0.0038414634242792795,-0.08623100449765168,0.9962677110952711,0.0,0.0,0.0,0.0,0.0,0.0,0.0,0.0,0.0,-0.00014068689489885782,-8.025337504119107e-05,-0.0008879652950458029,0.0,0.0,0.0,0.0,0.0,0.0,0.0,0.0,0.0,-0.0002889437744656126,-0.00011917356428772266,-7.443102692247441e-05,0.0,0.0,0.0,0.0,0.0,0.0,0.0,0.0,0.0,0.0,0.0,0.0,0.0,0.0,0.0,1.0,-2.1715580841122093,0.9085423086767782,-0.0010016810387995026,0.000323803639044784,0.0038414849734773526,-0.08623138963869319,0.9962676776777324,1e-05,0.0,0.0,0.0,0.0,0.0,0.0,1e-05,0.0,0.0,0.0,0.0,0.0,0.0,1000000000000.0,0.0,0.0,0.0,0.0,0.0,0.0,1000000000000.0,0.0,0.0,0.0,0.0,0.0,0.0,1000000000000.0,0.0,0.0,0.0,0.0,0.0,0.0,0.001,0.22012356565813726,-3.260383973323344e-06,0.0,0.0,0.0,-0.000876617365324907,0.0,0.0,0.0,0.0,0.0,0.0,0.0,0.0,0.0,0.0,0.0,0.0,0.0,0.0,0.0,0.0,0.0,0.0,0.0,0.0,0.0,0.0,0.0,0.0,0.0,0.0,0.0,0.0,0.0,0.0,0.0,0.0,0.0,0.0,0.0,0.0,0.20684807002544403,0.0,0.0,0.0,0.0,0.0
1346,166,234000000,166.234,base_footprint,0.00032688027132661947,0.003842379384874783,-0.08700616757169796,0.9962003092121768,0.0,0.0,0.0,0.0,0.0,0.0,0.0,0.0,0.0,-0.0008982286107776252,0.0010756339600670071,-0.04331767347232706,0.0,0.0,0.0,0.0,0.0,0.0,0.0,0.0,0.0,0.001018497757176262,-0.010227475739794465,0.015216429374980737,0.0,0.0,0.0,0.0,0.0,0.0,0.0,0.0,0.0,0.0,0.0,0.0,0.0,0.0,0.0,1.0,-2.164492561196382,0.9073052874290521,-0.0010018577830364188,0.0003266658578444545,0.003842721801323765,-0.08702784254536283,0.9961984146747447,1e-05,0.0,0.0,0.0,0.0,0.0,0.0,1e-05,0.0,0.0,0.0,0.0,0.0,0.0,1000000000000.0,0.0,0.0,0.0,0.0,0.0,0.0,1000000000000.0,0.0,0.0,0.0,0.0,0.0,0.0,1000000000000.0,0.0,0.0,0.0,0.0,0.0,0.0,0.001,0.2070408571761382,5.8470951218581035e-06,0.0,0.0,0.0,-0.043566102223170144,0.0,0.0,0.0,0.0,0.0,0.0,0.0,0.0,0.0,0.0,0.0,0.0,0.0,0.0,0.0,0.0,0.0,0.0,0.0,0.0,0.0,0.0,0.0,0.0,0.0,0.0,0.0,0.0,0.0,0.0,0.0,0.0,0.0,0.0,0.0,0.0,0.2199999988079071,1.9935076124966145e-05,0.0,0.0,0.0,0.007242393679916858
1379,166,267000000,166.267,base_footprint,0.00032627936853032183,0.0038432428288855363,-0.08705292454234827,0.9961962213113219,0.0,0.0,0.0,0.0,0.0,0.0,0.0,0.0,0.0,1.5291467544232893e-05,-0.00021337675844476097,-0.0007330022937830959,0.0,0.0,0.0,0.0,0.0,0.0,0.0,0.0,0.0,0.022850263638409134,-0.006604824054982629,-0.0009721179917082095,0.0,0.0,0.0,0.0,0.0,0.0,0.0,0.0,0.0,0.0,0.0,0.0,0.0,0.0,0.0,1.0,-2.157768233672518,0.9061209189071442,-0.0010019573508985788,0.0003263651959574826,0.0038431995936246675,-0.08705342426868669,0.9961961777811328,1e-05,0.0,0.0,0.0,0.0,0.0,0.0,1e-05,0.0,0.0,0.0,0.0,0.0,0.0,1000000000000.0,0.0,0.0,0.0,0.0,0.0,0.0,1000000000000.0,0.0,0.0,0.0,0.0,0.0,0.0,1000000000000.0,0.0,0.0,0.0,0.0,0.0,0.0,0.001,0.2070223296117569,1.9935076942624586e-05,0.0,0.0,0.0,-0.000962737160672131,0.0,0.0,0.0,0.0,0.0,0.0,0.0,0.0,0.0,0.0,0.0,0.0,0.0,0.0,0.0,0.0,0.0,0.0,0.0,0.0,0.0,0.0,0.0,0.0,0.0,0.0,0.0,0.0,0.0,0.0,0.0,0.0,0.0,0.0,0.0,0.0,0.2199999988079071,1.9935076124966145e-05,0.0,0.0,0.0,0.007242393679916858
1412,166,300000000,166.3,base_footprint,0.00032738754295822634,0.003843370053478796,-0.0870569810082032,0.9961958659730356,0.0,0.0,0.0,0.0,0.0,0.0,0.0,0.0,0.0,5.680562913211954e-06,-0.00024224485763768637,0.0036007187497412766,0.0,0.0,0.0,0.0,0.0,0.0,0.0,0.0,0.0,-0.027035266985460778,0.012969195561110064,0.0021169556987267707,0.0,0.0,0.0,0.0,0.0,0.0,0.0,0.0,0.0,0.0,0.0,0.0,0.0,0.0,0.0,1.0,-2.1510425409793337,0.9049366274798751,-0.0010019295013383271,0.00032745476988853457,0.0038432769127453663,-0.0870551001175097,0.9961960306784383,1e-05,0.0,0.0,0.0,0.0,0.0,0.0,1e-05,0.0,0.0,0.0,0.0,0.0,0.0,1000000000000.0,0.0,0.0,0.0,0.0,0.0,0.0,1000000000000.0,0.0,0.0,0.0,0.0,0.0,0.0,1000000000000.0,0.0,0.0,0.0,0.0,0.0,0.0,0.001,0.2066220947696002,-3.952955141890702e-06,0.0,0.0,0.0,0.0039406299155406894,0.0,0.0,0.0,0.0,0.0,0.0,0.0,0.0,0.0,0.0,0.0,0.0,0.0,0.0,0.0,0.0,0.0,0.0,0.0,0.0,0.0,0.0,0.0,0.0,0.0,0.0,0.0,0.0,0.0,0.0,0.0,0.0,0.0,0.0,0.0,0.0,0.2199999988079071,1.9935076124966145e-05,0.0,0.0,0.0,0.007242393679916858
1446,166,334000000,166.334,base_footprint,0.000329935248765391,0.0038363052509018613,-0.0863360116872488,0.9962586345877726,0.0,0.0,0.0,0.0,0.0,0.0,0.0,0.0,0.0,0.00032659148502075977,-0.0003232617599491005,0.040775405277398494,0.0,0.0,0.0,0.0,0.0,0.0,0.0,0.0,0.0,0.14294509301001945,-0.04109923927384548,0.000219294394585141,0.0,0.0,0.0,0.0,0.0,0.0,0.0,0.0,0.0,0.0,0.0,0.0,0.0,0.0,0.0,1.0,-2.1439883541406926,0.903699057686674,-0.0010010095539364772,0.00032987397524516116,0.003836262402414201,-0.08631661277083541,0.996260315697514,1e-05,0.0,0.0,0.0,0.0,0.0,0.0,1e-05,0.0,0.0,0.0,0.0,0.0,0.0,1000000000000.0,0.0,0.0,0.0,0.0,0.0,0.0,1000000000000.0,0.0,0.0,0.0,0.0,0.0,0.0,1000000000000.0,0.0,0.0,0.0,0.0,0.0,0.0,0.001,0.21336310652963625,-1.4437349003249e-06,0.0,0.0,0.0,0.03905261503331931,0.0,0.0,0.0,0.0,0.0,0.0,0.0,0.0,0.0,0.0,0.0,0.0,0.0,0.0,0.0,0.0,0.0,0.0,0.0,0.0,0.0,0.0,0.0,0.0,0.0,0.0,0.0,0.0,0.0,0.0,0.0,0.0,0.0,0.0,0.0,0.0,0.2199999988079071,8.843167051963974e-06,0.0,0.0,0.0,0.016363633796572682
1479,166,367000000,166.367,base_footprint,0.00032545636108780794,0.003842103731932565,-0.08585362444132344,0.9963002998530907,0.0,0.0,0.0,0.0,0.0,0.0,0.0,0.0,0.0,-0.00043323206336726334,0.0017590194386631966,0.007877489671488129,0.0,0.0,0.0,0.0,0.0,0.0,0.0,0.0,0.0,0.015655173788990704,-0.007305534405063543,0.0118887559936811,0.0,0.0,0.0,0.0,0.0,0.0,0.0,0.0,0.0,0.0,0.0,0.0,0.0,0.0,0.0,1.0,-2.1369153160862457,0.9024687342201789,-0.001001770516535664,0.000325041016400572,0.0038427669205640083,-0.08584969682607028,0.9963006358753386,1e-05,0.0,0.0,0.0,0.0,0.0,0.0,1e-05,0.0,0.0,0.0,0.0,0.0,0.0,1000000000000.0,0.0,0.0,0.0,0.0,0.0,0.0,1000000000000.0,0.0,0.0,0.0,0.0,0.0,0.0,1000000000000.0,0.0,0.0,0.0,0.0,0.0,0.0,0.001,0.22005456026602685,8.843167224277526e-06,0.0,0.0,0.0,0.00815850394923006,0.0,0.0,0.0,0.0,0.0,0.0,0.0,0.0,0.0,0.0,0.0,0.0,0.0,0.0,0.0,0.0,0.0,0.0,0.0,0.0,0.0,0.0,0.0,0.0,0.0,0.0,0.0,0.0,0.0,0.0,0.0,0.0,0.0,0.0,0.0,0.0,0.2199999988079071,8.843167051963974e-06,0.0,0.0,0.0,0.016363633796572682
1512,166,400000000,166.4,base_footprint,0.0003254733774657127,0.003843460057124234,-0.0857193979124273,0.996311852134361,0.0,0.0,0.0,0.0,0.0,0.0,0.0,0.0,0.0,0.00021744186521571385,-8.609489834400365e-06,0.007362165220920004,0.0,0.0,0.0,0.0,0.0,0.0,0.0,0.0,0.0,-0.009579138203469081,0.005786548496149702,-0.0005804961050910202,0.0,0.0,0.0,0.0,0.0,0.0,0.0,0.0,0.0,0.0,0.0,0.0,0.0,0.0,0.0,1.0,-2.129766836389682,0.9012290899484968,-0.0010018894015767742,0.00032551224441793877,0.003843520494617564,-0.08571592813000149,0.9963121504111042,1e-05,0.0,0.0,0.0,0.0,0.0,0.0,1e-05,0.0,0.0,0.0,0.0,0.0,0.0,1000000000000.0,0.0,0.0,0.0,0.0,0.0,0.0,1000000000000.0,0.0,0.0,0.0,0.0,0.0,0.0,1000000000000.0,0.0,0.0,0.0,0.0,0.0,0.0,0.001,0.21978530058708395,2.383641081165483e-05,0.0,0.0,0.0,0.007157946550532426,0.0,0.0,0.0,0.0,0.0,0.0,0.0,0.0,0.0,0.0,0.0,0.0,0.0,0.0,0.0,0.0,0.0,0.0,0.0,0.0,0.0,0.0,0.0,0.0,0.0,0.0,0.0,0.0,0.0,0.0,0.0,0.0,0.0,0.0,0.0,0.0,0.2199999988079071,8.843167051963974e-06,0.0,0.0,0.0,0.016363633796572682
1546,166,434000000,166.434,base_footprint,0.00032090862535114084,0.0038381006023258165,-0.08567175085638429,0.9963159725240895,0.0,0.0,0.0,0.0,0.0,0.0,0.0,0.0,0.0,-0.0005128152009388723,-0.00046442866585683345,-0.008028968774236088,0.0,0.0,0.0,0.0,0.0,0.0,0.0,0.0,0.0,-0.01851686058801794,0.002256184360761188,-0.00420990225144504,0.0,0.0,0.0,0.0,0.0,0.0,0.0,0.0,0.0,0.0,0.0,0.0,0.0,0.0,0.0,1.0,-2.122438295748373,0.8999599954261405,-0.0010012122838328613,0.00032076545244191573,0.003837958384946324,-0.08567598790040643,0.9963156087717635,1e-05,0.0,0.0,0.0,0.0,0.0,0.0,1e-05,0.0,0.0,0.0,0.0,0.0,0.0,1000000000000.0,0.0,0.0,0.0,0.0,0.0,0.0,1000000000000.0,0.0,0.0,0.0,0.0,0.0,0.0,1000000000000.0,0.0,0.0,0.0,0.0,0.0,0.0,0.001,0.21798041504044027,1.644234409845652e-05,0.0,0.0,0.0,-0.00835834789192479,0.0,0.0,0.0,0.0,0.0,0.0,0.0,0.0,0.0,0.0,0.0,0.0,0.0,0.0,0.0,0.0,0.0,0.0,0.0,0.0,0.0,0.0,0.0,0.0,0.0,0.0,0.0,0.0,0.0,0.0,0.0,0.0,0.0,0.0,0.0,0.0,0.2199999988079071,0.0,0.0,0.0,0.0,0.03136824816465378
1579,166,467000000,166.467,base_footprint,0.00032026310906818845,0.003836771470087047,-0.08574953753748783,0.9963092860293606,0.0,0.0,0.0,0.0,0.0,0.0,0.0,0.0,0.0,3.4029905167154415e-05,-0.00021344889441569597,0.005679822368630493,0.0,0.0,0.0,0.0,0.0,0.0,0.0,0.0,0.0,0.06946547211003501,-0.024602892433310423,-0.0007303162429907193,0.0,0.0,0.0,0.0,0.0,0.0,0.0,0.0,0.0,0.0,0.0,0.0,0.0,0.0,0.0,1.0,-2.115339964342505,0.8987295638678483,-0.0010010854360545073,0.0003202592074883811,0.0038367541199498673,-0.08574624327674177,0.9963095696196985,1e-05,0.0,0.0,0.0,0.0,0.0,0.0,1e-05,0.0,0.0,0.0,0.0,0.0,0.0,1000000000000.0,0.0,0.0,0.0,0.0,0.0,0.0,1000000000000.0,0.0,0.0,0.0,0.0,0.0,0.0,1000000000000.0,0.0,0.0,0.0,0.0,0.0,0.0,0.001,0.21909135299822002,-2.7145245258680673e-06,0.0,0.0,0.0,0.0067528611341116365,0.0,0.0,0.0,0.0,0.0,0.0,0.0,0.0,0.0,0.0,0.0,0.0,0.0,0.0,0.0,0.0,0.0,0.0,0.0,0.0,0.0,0.0,0.0,0.0,0.0,0.0,0.0,0.0,0.0,0.0,0.0,0.0,0.0,0.0,0.0,0.0,0.2199999988079071,0.0,0.0,0.0,0.0,0.03136824816465378
1612,166,500000000,166.5,base_footprint,0.00032241840554647925,0.003840035026595438,-0.0855074491439775,0.9963300789990516,0.0,0.0,0.0,0.0,0.0,0.0,0.0,0.0,0.0,0.00033225648762677,-1.7375929796286536e-05,0.015872394628414815,0.0,0.0,0.0,0.0,0.0,0.0,0.0,0.0,0.0,0.00444955115552773,0.001943936838713339,-0.00046739582737224093,0.0,0.0,0.0,0.0,0.0,0.0,0.0,0.0,0.0,0.0,0.0,0.0,0.0,0.0,0.0,1.0,-2.108195863343244,0.8974922545434002,-0.001001456949202409,0.0003224166038908022,0.00384011720171567,-0.08549950257267898,0.996330760644895,1e-05,0.0,0.0,0.0,0.0,0.0,0.0,1e-05,0.0,0.0,0.0,0.0,0.0,0.0,1000000000000.0,0.0,0.0,0.0,0.0,0.0,0.0,1000000000000.0,0.0,0.0,0.0,0.0,0.0,0.0,1000000000000.0,0.0,0.0,0.0,0.0,0.0,0.0,0.001,0.219791897053854,-4.685175740495873e-06,0.0,0.0,0.0,0.015871737457033984,0.0,0.0,0.0,0.0,0.0,0.0,0.0,0.0,0.0,0.0,0.0,0.0,0.0,0.0,0.0,0.0,0.0,0.0,0.0,0.0,0.0,0.0,0.0,0.0,0.0,0.0,0.0,0.0,0.0,0.0,0.0,0.0,0.0,0.0,0.0,0.0,0.2199999988079071,0.0,0.0,0.0,0.0,0.03136824816465378
1646,166,534000000,166.534,base_footprint,0.00032022849724271097,0.003839999218287006,-0.08499672962495897,0.9963737791676248,0.0,0.0,0.0,0.0,0.0,0.0,0.0,0.0,0.0,0.00028581402954493693,-0.0002289340647365879,0.030586155379562698,0.0,0.0,0.0,0.0,0.0,0.0,0.0,0.0,0.0,0.003095964003244074,0.0060512133377456385,0.0003466353525848371,0.0,0.0,0.0,0.0,0.0,0.0,0.0,0.0,0.0,0.0,0.0,0.0,0.0,0.0,0.0,1.0,-2.100835816555428,0.8962233329964187,-0.0010014211388371004,0.0003201586022303918,0.0038399875919811408,-0.08498143772285026,0.9963750836087383,1e-05,0.0,0.0,0.0,0.0,0.0,0.0,1e-05,0.0,0.0,0.0,0.0,0.0,0.0,1000000000000.0,0.0,0.0,0.0,0.0,0.0,0.0,1000000000000.0,0.0,0.0,0.0,0.0,0.0,0.0,1000000000000.0,0.0,0.0,0.0,0.0,0.0,0.0,0.001,0.21968598368791312,-1.119648344187485e-05,0.0,0.0,0.0,0.030582009909826856,0.0,0.0,0.0,0.0,0.0,0.0,0.0,0.0,0.0,0.0,0.0,0.0,0.0,0.0,0.0,0.0,0.0,0.0,0.0,0.0,0.0,0.0,0.0,0.0,0.0,0.0,0.0,0.0,0.0,0.0,0.0,0.0,0.0,0.0,0.0,0.0,0.2199999988079071,0.0,0.0,0.0,0.0,0.03868208453059196
1679,166,567000000,166.567,base_footprint,0.00031802314145150883,0.0038401447961989134,-0.0844926870187821,0.9964166487918454,0.0,0.0,0.0,0.0,0.0,0.0,0.0,0.0,0.0,0.00027686229291861065,-0.00020253225260159584,0.030478845165638712,0.0,0.0,0.0,0.0,0.0,0.0,0.0,0.0,0.0,0.0035032714632551296,0.005885133521184025,-4.01089923684649e-05,0.0,0.0,0.0,0.0,0.0,0.0,0.0,0.0,0.0,0.0,0.0,0.0,0.0,0.0,0.0,1.0,-2.0936895645333276,0.8949988420622055,-0.0010014247722423056,0.0003179566480031528,0.003840154864161548,-0.08447743538698148,0.9964179419423497,1e-05,0.0,0.0,0.0,0.0,0.0,0.0,1e-05,0.0,0.0,0.0,0.0,0.0,0.0,1000000000000.0,0.0,0.0,0.0,0.0,0.0,0.0,1000000000000.0,0.0,0.0,0.0,0.0,0.0,0.0,1000000000000.0,0.0,0.0,0.0,0.0,0.0,0.0,0.001,0.2197302478720051,-1.1669131948111033e-05,0.0,0.0,0.0,0.030476959306349506,0.0,0.0,0.0,0.0,0.0,0.0,0.0,0.0,0.0,0.0,0.0,0.0,0.0,0.0,0.0,0.0,0.0,0.0,0.0,0.0,0.0,0.0,0.0,0.0,0.0,0.0,0.0,0.0,0.0,0.0,0.0,0.0,0.0,0.0,0.0,0.0,0.2199999988079071,0.0,0.0,0.0,0.0,0.03868208453059196
1712,166,600000000,166.6,base_footprint,0.00031581194519990336,0.0038405855660140283,-0.08399011287802559,0.9964591366955607,0.0,0.0,0.0,0.0,0.0,0.0,0.0,0.0,0.0,0.00019349600885754125,-0.00016952119452878333,0.030388515300008086,0.0,0.0,0.0,0.0,0.0,0.0,0.0,0.0,0.0,0.0033599770845066847,0.005924345708416209,-0.00016563983399443341,0.0,0.0,0.0,0.0,0.0,0.0,0.0,0.0,0.0,0.0,0.0,0.0,0.0,0.0,0.0,1.0,-2.0865407980920283,0.8937813494894175,-0.0010014651511230967,0.00031574466910790533,0.003840602740707551,-0.08397490786299365,0.9964604181427851,1e-05,0.0,0.0,0.0,0.0,0.0,0.0,1e-05,0.0,0.0,0.0,0.0,0.0,0.0,1000000000000.0,0.0,0.0,0.0,0.0,0.0,0.0,1000000000000.0,0.0,0.0,0.0,0.0,0.0,0.0,1000000000000.0,0.0,0.0,0.0,0.0,0.0,0.0,0.001,0.21977389323203114,-1.2494262542551982e-05,0.0,0.0,0.0,0.03038768028196277,0.0,0.0,0.0,0.0,0.0,0.0,0.0,0.0,0.0,0.0,0.0,0.0,0.0,0.0,0.0,0.0,0.0,0.0,0.0,0.0,0.0,0.0,0.0,0.0,0.0,0.0,0.0,0.0,0.0,0.0,0.0,0.0,0.0,0.0,0.0,0.0,0.2199999988079071,0.0,0.0,0.0,0.0,0.03868208453059196
1746,166,634000000,166.634,base_footprint,0.00031308701829452695,0.0038412901731133347,-0.08335426701473803,0.9965125250777137,0.0,0.0,0.0,0.0,0.0,0.0,0.0,0.0,0.0,0.00018196888066887644,-0.00014070422831836529,0.037601422521678585,0.0,0.0,0.0,0.0,0.0,0.0,0.0,0.0,0.0,0.004028793002829703,0.007365719856203772,-0.0002132553048523358,0.0,0.0,0.0,0.0,0.0,0.0,0.0,0.0,0.0,0.0,0.0,0.0,0.0,0.0,0.0,1.0,-2.0791747674426233,0.8925354617223097,-0.0010015354507298194,0.0003130070045270768,0.003841317991118152,-0.08333547944177563,0.9965140963222325,1e-05,0.0,0.0,0.0,0.0,0.0,0.0,1e-05,0.0,0.0,0.0,0.0,0.0,0.0,1000000000000.0,0.0,0.0,0.0,0.0,0.0,0.0,1000000000000.0,0.0,0.0,0.0,0.0,0.0,0.0,1000000000000.0,0.0,0.0,0.0,0.0,0.0,0.0,0.001,0.21975424983712114,-1.5425392928501702e-05,0.0,0.0,0.0,0.03759848436209259,0.0,0.0,0.0,0.0,0.0,0.0,0.0,0.0,0.0,0.0,0.0,0.0,0.0,0.0,0.0,0.0,0.0,0.0,0.0,0.0,0.0,0.0,0.0,0.0,0.0,0.0,0.0,0.0,0.0,0.0,0.0,0.0,0.0,0.0,0.0,0.0,0.2199999988079071,0.0,0.0,0.0,0.0,-0.0033853964414447546
1779,166,667000000,166.667,base_footprint,0.00031028681725075454,0.0038424233187628826,-0.08273485545392373,0.9965641390287677,0.0,0.0,0.0,0.0,0.0,0.0,0.0,0.0,0.0,0.00015298309918606277,-0.00012648377312419264,0.03762975321840315,0.0,0.0,0.0,0.0,0.0,0.0,0.0,0.0,0.0,0.002611372146627595,0.007660088205967218,0.00013200036937898848,0.0,0.0,0.0,0.0,0.0,0.0,0.0,0.0,0.0,0.0,0.0,0.0,0.0,0.0,0.0,1.0,-2.072022649358136,0.8913350335872589,-0.0010016614670022884,0.000310202960330633,0.0038424530772262727,-0.08271604455023415,0.9965657004444998,1e-05,0.0,0.0,0.0,0.0,0.0,0.0,1e-05,0.0,0.0,0.0,0.0,0.0,0.0,1000000000000.0,0.0,0.0,0.0,0.0,0.0,0.0,1000000000000.0,0.0,0.0,0.0,0.0,0.0,0.0,1000000000000.0,0.0,0.0,0.0,0.0,0.0,0.0,0.001,0.21978316239504916,-1.7381472887614824e-05,0.0,0.0,0.0,0.03764024367259637,0.0,0.0,0.0,0.0,0.0,0.0,0.0,0.0,0.0,0.0,0.0,0.0,0.0,0.0,0.0,0.0,0.0,0.0,0.0,0.0,0.0,0.0,0.0,0.0,0.0,0.0,0.0,0.0,0.0,0.0,0.0,0.0,0.0,0.0,0.0,0.0,0.2199999988079071,0.0,0.0,0.0,0.0,-0.0033853964414447546
1812,166,700000000,166.7,base_footprint,0.00030772050030943823,0.0038432433273354744,-0.08211145778972982,0.9966156948836729,0.0,0.0,0.0,0.0,0.0,0.0,0.0,0.0,0.0,0.00016897418283152158,-0.00013438594286823848,0.03788766728953386,0.0,0.0,0.0,0.0,0.0,0.0,0.0,0.0,0.0,0.003960138926136093,0.007315361968791829,-8.364350326344508e-05,0.0,0.0,0.0,0.0,0.0,0.0,0.0,0.0,0.0,0.0,0.0,0.0,0.0,0.0,0.0,1.0,-2.064868911860485,0.8901433988786528,-0.001001742295935061,0.0003076498301463433,0.0038432592735847897,-0.08209254294747191,0.9966172530626568,1e-05,0.0,0.0,0.0,0.0,0.0,0.0,1e-05,0.0,0.0,0.0,0.0,0.0,0.0,1000000000000.0,0.0,0.0,0.0,0.0,0.0,0.0,1000000000000.0,0.0,0.0,0.0,0.0,0.0,0.0,1000000000000.0,0.0,0.0,0.0,0.0,0.0,0.0,0.001,0.21979079429796308,-2.203809225235359e-05,0.0,0.0,0.0,0.0378800793771461,0.0,0.0,0.0,0.0,0.0,0.0,0.0,0.0,0.0,0.0,0.0,0.0,0.0,0.0,0.0,0.0,0.0,0.0,0.0,0.0,0.0,0.0,0.0,0.0,0.0,0.0,0.0,0.0,0.0,0.0,0.0,0.0,0.0,0.0,0.0,0.0,0.2199999988079071,0.0,0.0,0.0,0.0,-0.0033853964414447546
1846,166,734000000,166.734,base_footprint,0.0003075084325619434,0.003844548623788071,-0.08212324230010329,0.9966147189152696,0.0,0.0,0.0,0.0,0.0,0.0,0.0,0.0,0.0,-0.00014016692089359074,-2.6438878351256464e-05,-0.0022041368973437247,0.0,0.0,0.0,0.0,0.0,0.0,0.0,0.0,0.0,0.014692086846324892,-0.00851450147574968,0.0022026903723831744,0.0,0.0,0.0,0.0,0.0,0.0,0.0,0.0,0.0,0.0,0.0,0.0,0.0,0.0,0.0,1.0,-2.057488023966418,0.8889192108677098,-0.0010019211576073363,0.0003075151424754287,0.0038445587727420224,-0.08212443870988557,0.9966146202865311,1e-05,0.0,0.0,0.0,0.0,0.0,0.0,1e-05,0.0,0.0,0.0,0.0,0.0,0.0,1000000000000.0,0.0,0.0,0.0,0.0,0.0,0.0,1000000000000.0,0.0,0.0,0.0,0.0,0.0,0.0,1000000000000.0,0.0,0.0,0.0,0.0,0.0,0.0,0.001,0.22003057241251434,1.5035219665338051e-05,0.0,0.0,0.0,-0.00238548147801757,0.0,0.0,0.0,0.0,0.0,0.0,0.0,0.0,0.0,0.0,0.0,0.0,0.0,0.0,0.0,0.0,0.0,0.0,0.0,0.0,0.0,0.0,0.0,0.0,0.0,0.0,0.0,0.0,0.0,0.0,0.0,0.0,0.0,0.0,0.0,0.0,0.2199999988079071,0.0,0.0,0.0,0.0,-0.04171400144696236
1879,166,767000000,166.767,base_footprint,0.00030852909777463657,0.0038449719604414984,-0.0821711384587814,0.9966107690592186,0.0,0.0,0.0,0.0,0.0,0.0,0.0,0.0,0.0,-5.6055053992966664e-05,-8.16757363861895e-05,-0.0009485142030930846,0.0,0.0,0.0,0.0,0.0,0.0,0.0,0.0,0.0,-0.021407937703140426,0.0032352862945444977,0.0013578346354582225,0.0,0.0,0.0,0.0,0.0,0.0,0.0,0.0,0.0,0.0,0.0,0.0,0.0,0.0,0.0,1.0,-2.0503236520413486,0.8877306022646047,-0.0010019504753570226,0.0003085663415904749,0.003844956876863011,-0.08217155291421606,0.9966107349337023,1e-05,0.0,0.0,0.0,0.0,0.0,0.0,1e-05,0.0,0.0,0.0,0.0,0.0,0.0,1000000000000.0,0.0,0.0,0.0,0.0,0.0,0.0,1000000000000.0,0.0,0.0,0.0,0.0,0.0,0.0,1000000000000.0,0.0,0.0,0.0,0.0,0.0,0.0,0.001,0.21990658304658364,-1.4858545995796724e-05,0.0,0.0,0.0,-0.0006883671612542203,0.0,0.0,0.0,0.0,0.0,0.0,0.0,0.0,0.0,0.0,0.0,0.0,0.0,0.0,0.0,0.0,0.0,0.0,0.0,0.0,0.0,0.0,0.0,0.0,0.0,0.0,0.0,0.0,0.0,0.0,0.0,0.0,0.0,0.0,0.0,0.0,0.2199999988079071,0.0,0.0,0.0,0.0,-0.04171400144696236
1912,166,800000000,166.8,base_footprint,0.0003097317059387362,0.003844310081675825,-0.08218207509115512,0.9966098694474071,0.0,0.0,0.0,0.0,0.0,0.0,0.0,0.0,0.0,-0.00024159069647604206,0.0005300501089039895,-0.004155983900678794,0.0,0.0,0.0,0.0,0.0,0.0,0.0,0.0,0.0,0.0003039663170482306,-0.0015211545953223787,0.0009387321221710452,0.0,0.0,0.0,0.0,0.0,0.0,0.0,0.0,0.0,0.0,0.0,0.0,0.0,0.0,0.0,1.0,-2.0431653092097384,0.8865420980182044,-0.0010018956498350738,0.0003096124592994177,0.003844558417848769,-0.08218422157181518,0.9966096915218774,1e-05,0.0,0.0,0.0,0.0,0.0,0.0,1e-05,0.0,0.0,0.0,0.0,0.0,0.0,1000000000000.0,0.0,0.0,0.0,0.0,0.0,0.0,1000000000000.0,0.0,0.0,0.0,0.0,0.0,0.0,1000000000000.0,0.0,0.0,0.0,0.0,0.0,0.0,0.001,0.2202038107223505,-3.127183314091675e-06,0.0,0.0,0.0,-0.0040596090917960565,0.0,0.0,0.0,0.0,0.0,0.0,0.0,0.0,0.0,0.0,0.0,0.0,0.0,0.0,0.0,0.0,0.0,0.0,0.0,0.0,0.0,0.0,0.0,0.0,0.0,0.0,0.0,0.0,0.0,0.0,0.0,0.0,0.0,0.0,0.0,0.0,0.2199999988079071,0.0,0.0,0.0,0.0,-0.04171400144696236
1946,166,834000000,166.834,base_footprint,0.00031301905198379275,0.0038438572252238404,-0.0828094508055515,0.9965579369198703,0.0,0.0,0.0,0.0,0.0,0.0,0.0,0.0,0.0,-0.0003642027805312068,0.00016760479750921623,-0.04019244614606599,0.0,0.0,0.0,0.0,0.0,0.0,0.0,0.0,0.0,0.007948142800588302,-0.012292097889819628,-0.0018075329460564378,0.0,0.0,0.0,0.0,0.0,0.0,0.0,0.0,0.0,0.0,0.0,0.0,0.0,0.0,0.0,1.0,-2.0357790859472784,0.885311162484313,-0.001001842753951803,0.00031304757410643123,0.003843937441733124,-0.08282963079479669,0.9965562595300671,1e-05,0.0,0.0,0.0,0.0,0.0,0.0,1e-05,0.0,0.0,0.0,0.0,0.0,0.0,1000000000000.0,0.0,0.0,0.0,0.0,0.0,0.0,1000000000000.0,0.0,0.0,0.0,0.0,0.0,0.0,1000000000000.0,0.0,0.0,0.0,0.0,0.0,0.0,0.001,0.22030380265715221,1.3510027986343709e-05,0.0,0.0,0.0,-0.040218906633854176,0.0,0.0,0.0,0.0,0.0,0.0,0.0,0.0,0.0,0.0,0.0,0.0,0.0,0.0,0.0,0.0,0.0,0.0,0.0,0.0,0.0,0.0,0.0,0.0,0.0,0.0,0.0,0.0,0.0,0.0,0.0,0.0,0.0,0.0,0.0,0.0,0.206851989030838,3.800554986810312e-05,0.0,0.0,0.0,-0.050388153642416
1979,166,867000000,166.867,base_footprint,0.000316703429345335,0.003844402671555444,-0.08348492078489674,0.9965015746443034,0.0,0.0,0.0,0.0,0.0,0.0,0.0,0.0,0.0,-0.00015825808647819748,2.3579584068039086e-06,-0.04202030181938196,0.0,0.0,0.0,0.0,0.0,0.0,0.0,0.0,0.0,-0.010304309243372322,-0.004157336490859937,-0.0007621962203672112,0.0,0.0,0.0,0.0,0.0,0.0,0.0,0.0,0.0,0.0,0.0,0.0,0.0,0.0,0.0,1.0,-2.0286109942711517,0.8841068066708564,-0.0010019183599475553,0.00031684129323897954,0.0038444308201432014,-0.08350602899166615,0.9964998058631558,1e-05,0.0,0.0,0.0,0.0,0.0,0.0,1e-05,0.0,0.0,0.0,0.0,0.0,0.0,1000000000000.0,0.0,0.0,0.0,0.0,0.0,0.0,1000000000000.0,0.0,0.0,0.0,0.0,0.0,0.0,1000000000000.0,0.0,0.0,0.0,0.0,0.0,0.0,0.001,0.2201877959879306,3.800555070896522e-05,0.0,0.0,0.0,-0.042183017972620106,0.0,0.0,0.0,0.0,0.0,0.0,0.0,0.0,0.0,0.0,0.0,0.0,0.0,0.0,0.0,0.0,0.0,0.0,0.0,0.0,0.0,0.0,0.0,0.0,0.0,0.0,0.0,0.0,0.0,0.0,0.0,0.0,0.0,0.0,0.0,0.0,0.206851989030838,3.800554986810312e-05,0.0,0.0,0.0,-0.050388153642416
2012,166,900000000,166.9,base_footprint,0.0003166029954532023,0.0038405806314459005,-0.08432007076333121,0.9964312697669737,0.0,0.0,0.0,0.0,0.0,0.0,0.0,0.0,0.0,-0.0017659010341945793,-0.0009881530246855486,-0.06302583435405691,0.0,0.0,0.0,0.0,0.0,0.0,0.0,0.0,0.0,-0.03367476092486293,-0.0033113970414279624,0.006517584276030599,0.0,0.0,0.0,0.0,0.0,0.0,0.0,0.0,0.0,0.0,0.0,0.0,0.0,0.0,0.0,1.0,-2.021466929537194,0.8828961977376608,-0.0010013983281442589,0.00031645820415024834,0.0038399861758328263,-0.08435172740565684,0.9964285927471452,1e-05,0.0,0.0,0.0,0.0,0.0,0.0,1e-05,0.0,0.0,0.0,0.0,0.0,0.0,1000000000000.0,0.0,0.0,0.0,0.0,0.0,0.0,1000000000000.0,0.0,0.0,0.0,0.0,0.0,0.0,1000000000000.0,0.0,0.0,0.0,0.0,0.0,0.0,0.001,0.21871113744800091,3.457033878958432e-05,0.0,0.0,0.0,-0.06339639718587947,0.0,0.0,0.0,0.0,0.0,0.0,0.0,0.0,0.0,0.0,0.0,0.0,0.0,0.0,0.0,0.0,0.0,0.0,0.0,0.0,0.0,0.0,0.0,0.0,0.0,0.0,0.0,0.0,0.0,0.0,0.0,0.0,0.0,0.0,0.0,0.0,0.206851989030838,3.800554986810312e-05,0.0,0.0,0.0,-0.050388153642416
2046,166,934000000,166.934,base_footprint,0.00032217836955841783,0.0038444824187989107,-0.08466933136696808,0.9964016361296785,0.0,0.0,0.0,0.0,0.0,0.0,0.0,0.0,0.0,-0.000390201339612823,-0.0003042171927505206,-0.04250515230790917,0.0,0.0,0.0,0.0,0.0,0.0,0.0,0.0,0.0,-0.20519328425430755,0.06442815490284814,-0.003628644037236607,0.0,0.0,0.0,0.0,0.0,0.0,0.0,0.0,0.0,0.0,0.0,0.0,0.0,0.0,0.0,1.0,-2.014381647510951,0.8816851422250683,-0.0010018953941589998,0.0003222842390832863,0.0038444525080331133,-0.08469213203312102,0.9963996984591411,1e-05,0.0,0.0,0.0,0.0,0.0,0.0,1e-05,0.0,0.0,0.0,0.0,0.0,0.0,1000000000000.0,0.0,0.0,0.0,0.0,0.0,0.0,1000000000000.0,0.0,0.0,0.0,0.0,0.0,0.0,1000000000000.0,0.0,0.0,0.0,0.0,0.0,0.0,0.001,0.2074170560961901,1.7791648204555643e-05,0.0,0.0,0.0,-0.045635997437414325,0.0,0.0,0.0,0.0,0.0,0.0,0.0,0.0,0.0,0.0,0.0,0.0,0.0,0.0,0.0,0.0,0.0,0.0,0.0,0.0,0.0,0.0,0.0,0.0,0.0,0.0,0.0,0.0,0.0,0.0,0.0,0.0,0.0,0.0,0.0,0.0,0.2199999988079071,1.967564458027482e-05,0.0,0.0,0.0,-0.026427142322063446
2079,166,967000000,166.967,base_footprint,0.00032273301955800784,0.0038398686918196634,-0.08552149934709263,0.9963288736161634,0.0,0.0,0.0,0.0,0.0,0.0,0.0,0.0,0.0,-0.00040634385014319476,-0.00026598958634103725,-0.05112280476802688,0.0,0.0,0.0,0.0,0.0,0.0,0.0,0.0,0.0,0.0027002939792814522,-0.012359362969741489,-0.004451970333893895,0.0,0.0,0.0,0.0,0.0,0.0,0.0,0.0,0.0,0.0,0.0,0.0,0.0,0.0,0.0,1.0,-2.0076453193033346,0.8805260326345513,-0.0010014327646412982,0.0003228108210329672,0.003839807276006495,-0.08554689868817117,0.9963266933080197,1e-05,0.0,0.0,0.0,0.0,0.0,0.0,1e-05,0.0,0.0,0.0,0.0,0.0,0.0,1000000000000.0,0.0,0.0,0.0,0.0,0.0,0.0,1000000000000.0,0.0,0.0,0.0,0.0,0.0,0.0,1000000000000.0,0.0,0.0,0.0,0.0,0.0,0.0,0.001,0.20721290265841774,1.9675644821394445e-05,0.0,0.0,0.0,-0.05104252577284098,0.0,0.0,0.0,0.0,0.0,0.0,0.0,0.0,0.0,0.0,0.0,0.0,0.0,0.0,0.0,0.0,0.0,0.0,0.0,0.0,0.0,0.0,0.0,0.0,0.0,0.0,0.0,0.0,0.0,0.0,0.0,0.0,0.0,0.0,0.0,0.0,0.2199999988079071,1.967564458027482e-05,0.0,0.0,0.0,-0.026427142322063446
2112,167,0,167.0,base_footprint,0.00032586541162602634,0.00383962390192658,-0.08635799438129392,0.9962567178726905,0.0,0.0,0.0,0.0,0.0,0.0,0.0,0.0,0.0,-0.00032200488064150116,-0.0001135541995080247,-0.0510583729056506,0.0,0.0,0.0,0.0,0.0,0.0,0.0,0.0,0.0,-0.002567643426604706,-0.010303337754249235,-2.0761276307848627e-05,0.0,0.0,0.0,0.0,0.0,0.0,0.0,0.0,0.0,0.0,0.0,0.0,0.0,0.0,0.0,1.0,-2.0009069865172995,0.8793549206060106,-0.0010014280435511752,0.0003259536359030693,0.0038396054550230356,-0.08638338019159197,0.99625451708429,1e-05,0.0,0.0,0.0,0.0,0.0,0.0,1e-05,0.0,0.0,0.0,0.0,0.0,0.0,1000000000000.0,0.0,0.0,0.0,0.0,0.0,0.0,1000000000000.0,0.0,0.0,0.0,0.0,0.0,0.0,1000000000000.0,0.0,0.0,0.0,0.0,0.0,0.0,0.001,0.20726434634542526,1.9773234276793117e-05,0.0,0.0,0.0,-0.051064239688304675,0.0,0.0,0.0,0.0,0.0,0.0,0.0,0.0,0.0,0.0,0.0,0.0,0.0,0.0,0.0,0.0,0.0,0.0,0.0,0.0,0.0,0.0,0.0,0.0,0.0,0.0,0.0,0.0,0.0,0.0,0.0,0.0,0.0,0.0,0.0,0.0,0.2199999988079071,1.967564458027482e-05,0.0,0.0,0.0,-0.026427142322063446
2146,167,34000000,167.034,base_footprint,0.00032806190456540347,0.003835883455546074,-0.08750832926689506,0.996156348512832,0.0,0.0,0.0,0.0,0.0,0.0,0.0,0.0,0.0,6.531604793241144e-05,-7.604328400611591e-05,-0.026109062124445272,0.0,0.0,0.0,0.0,0.0,0.0,0.0,0.0,0.0,0.19321746640067283,-0.07747527550885273,-0.014483512406688173,0.0,0.0,0.0,0.0,0.0,0.0,0.0,0.0,0.0,0.0,0.0,0.0,0.0,0.0,0.0,1.0,-1.9936921814546293,0.8780853262350867,-0.0010011629293265288,0.0003285008240284887,0.003836243309205673,-0.08752081939032749,0.996155249696415,1e-05,0.0,0.0,0.0,0.0,0.0,0.0,1e-05,0.0,0.0,0.0,0.0,0.0,0.0,1000000000000.0,0.0,0.0,0.0,0.0,0.0,0.0,1000000000000.0,0.0,0.0,0.0,0.0,0.0,0.0,1000000000000.0,0.0,0.0,0.0,0.0,0.0,0.0,0.001,0.22021026007404032,6.2752271087485045e-06,0.0,0.0,0.0,-0.025194608743825994,0.0,0.0,0.0,0.0,0.0,0.0,0.0,0.0,0.0,0.0,0.0,0.0,0.0,0.0,0.0,0.0,0.0,0.0,0.0,0.0,0.0,0.0,0.0,0.0,0.0,0.0,0.0,0.0,0.0,0.0,0.0,0.0,0.0,0.0,0.0,0.0,0.2199999988079071,8.78479204402538e-06,0.0,0.0,0.0,-0.01919320411980152
2179,167,67000000,167.067,base_footprint,0.000331413192235274,0.003839203766278228,-0.08795374555870243,0.9961171062289474,0.0,0.0,0.0,0.0,0.0,0.0,0.0,0.0,0.0,-0.00025066072615578745,-4.0013320623068674e-05,-0.027396025455395635,0.0,0.0,0.0,0.0,0.0,0.0,0.0,0.0,0.0,-0.0007900678828488081,-0.006112028875590876,-0.0010182467211651111,0.0,0.0,0.0,0.0,0.0,0.0,0.0,0.0,0.0,0.0,0.0,0.0,0.0,0.0,0.0,1.0,-1.9865354032649911,0.8768148731452766,-0.001001454159860863,0.0003314616842330789,0.003839236635438891,-0.08796731822367056,0.996115907572881,1e-05,0.0,0.0,0.0,0.0,0.0,0.0,1e-05,0.0,0.0,0.0,0.0,0.0,0.0,1000000000000.0,0.0,0.0,0.0,0.0,0.0,0.0,1000000000000.0,0.0,0.0,0.0,0.0,0.0,0.0,1000000000000.0,0.0,0.0,0.0,0.0,0.0,0.0,0.001,0.22028279381397836,8.784791819635429e-06,0.0,0.0,0.0,-0.02739832852068664,0.0,0.0,0.0,0.0,0.0,0.0,0.0,0.0,0.0,0.0,0.0,0.0,0.0,0.0,0.0,0.0,0.0,0.0,0.0,0.0,0.0,0.0,0.0,0.0,0.0,0.0,0.0,0.0,0.0,0.0,0.0,0.0,0.0,0.0,0.0,0.0,0.2199999988079071,8.78479204402538e-06,0.0,0.0,0.0,-0.01919320411980152
2212,167,100000000,167.1,base_footprint,0.00033287501205595037,0.003839540905785086,-0.08840282028648463,0.9960773506536803,0.0,0.0,0.0,0.0,0.0,0.0,0.0,0.0,0.0,-0.00032451035236965144,-6.156272593756587e-05,-0.027527939080533657,0.0,0.0,0.0,0.0,0.0,0.0,0.0,0.0,0.0,-0.0008457668650016488,-0.006104298168661255,-4.970072253361118e-05,0.0,0.0,0.0,0.0,0.0,0.0,0.0,0.0,0.0,0.0,0.0,0.0,0.0,0.0,0.0,1.0,-1.979378590975146,0.8755377910017104,-0.0010015172922370336,0.00033291847181058656,0.0038395532193439383,-0.0884164609089009,0.9960761398792324,1e-05,0.0,0.0,0.0,0.0,0.0,0.0,1e-05,0.0,0.0,0.0,0.0,0.0,0.0,1000000000000.0,0.0,0.0,0.0,0.0,0.0,0.0,1000000000000.0,0.0,0.0,0.0,0.0,0.0,0.0,1000000000000.0,0.0,0.0,0.0,0.0,0.0,0.0,0.001,0.2203262945851852,8.77990235295667e-06,0.0,0.0,0.0,-0.02753298381936276,0.0,0.0,0.0,0.0,0.0,0.0,0.0,0.0,0.0,0.0,0.0,0.0,0.0,0.0,0.0,0.0,0.0,0.0,0.0,0.0,0.0,0.0,0.0,0.0,0.0,0.0,0.0,0.0,0.0,0.0,0.0,0.0,0.0,0.0,0.0,0.0,0.2199999988079071,8.78479204402538e-06,0.0,0.0,0.0,-0.01919320411980152
2246,167,134000000,167.134,base_footprint,0.0003338673387846892,0.0038401919786471574,-0.08874893092900227,0.9960465695524113,0.0,0.0,0.0,0.0,0.0,0.0,0.0,0.0,0.0,-0.00029001453585305616,-4.239645050501589e-05,-0.0203313418703064,0.0,0.0,0.0,0.0,0.0,0.0,0.0,0.0,0.0,-0.0013685857774118635,-0.004328056501234726,-7.428536847685574e-05,0.0,0.0,0.0,0.0,0.0,0.0,0.0,0.0,0.0,0.0,0.0,0.0,0.0,0.0,0.0,1.0,-1.9720068311414167,0.8742162218767026,-0.0010016222375380072,0.00033389657737864406,0.0038402183388635803,-0.08875898963441178,0.9960456731472026,1e-05,0.0,0.0,0.0,0.0,0.0,0.0,1e-05,0.0,0.0,0.0,0.0,0.0,0.0,1000000000000.0,0.0,0.0,0.0,0.0,0.0,0.0,1000000000000.0,0.0,0.0,0.0,0.0,0.0,0.0,1000000000000.0,0.0,0.0,0.0,0.0,0.0,0.0,0.001,0.22029776882737334,5.496932090245932e-06,0.0,0.0,0.0,-0.020324074790539867,0.0,0.0,0.0,0.0,0.0,0.0,0.0,0.0,0.0,0.0,0.0,0.0,0.0,0.0,0.0,0.0,0.0,0.0,0.0,0.0,0.0,0.0,0.0,0.0,0.0,0.0,0.0,0.0,0.0,0.0,0.0,0.0,0.0,0.0,0.0,0.0,0.2199999988079071,3.3562614589754958e-06,0.0,0.0,0.0,-0.011719155125319958
2279,167,167000000,167.167,base_footprint,0.0003349190370188333,0.0038408693550460267,-0.08907822816382514,0.9960171709458776,0.0,0.0,0.0,0.0,0.0,0.0,0.0,0.0,0.0,-0.0003108323978285542,-4.572089503154286e-05,-0.01993883076455387,0.0,0.0,0.0,0.0,0.0,0.0,0.0,0.0,0.0,-0.0020529509127266855,-0.003981061884666144,-7.261614065075048e-05,0.0,0.0,0.0,0.0,0.0,0.0,0.0,0.0,0.0,0.0,0.0,0.0,0.0,0.0,0.0,1.0,-1.9648525211502041,0.8729286264980046,-0.0010017259990995585,0.00033495116588120634,0.0038408874633510787,-0.08908810800043794,0.9960162872182928,1e-05,0.0,0.0,0.0,0.0,0.0,0.0,1e-05,0.0,0.0,0.0,0.0,0.0,0.0,1000000000000.0,0.0,0.0,0.0,0.0,0.0,0.0,1000000000000.0,0.0,0.0,0.0,0.0,0.0,0.0,1000000000000.0,0.0,0.0,0.0,0.0,0.0,0.0,0.001,0.2202892946975179,3.356261489180501e-06,0.0,0.0,0.0,-0.019924285746342807,0.0,0.0,0.0,0.0,0.0,0.0,0.0,0.0,0.0,0.0,0.0,0.0,0.0,0.0,0.0,0.0,0.0,0.0,0.0,0.0,0.0,0.0,0.0,0.0,0.0,0.0,0.0,0.0,0.0,0.0,0.0,0.0,0.0,0.0,0.0,0.0,0.2199999988079071,3.3562614589754958e-06,0.0,0.0,0.0,-0.011719155125319958
2312,167,200000000,167.2,base_footprint,0.00033601170139220445,0.0038414868453128985,-0.08939993215367201,0.9959883444126606,0.0,0.0,0.0,0.0,0.0,0.0,0.0,0.0,0.0,-0.0002936624365797289,-1.418431284629747e-05,-0.019263815709525216,0.0,0.0,0.0,0.0,0.0,0.0,0.0,0.0,0.0,-0.0032417283152293983,-0.0036830041368915785,-0.00015874139655261228,0.0,0.0,0.0,0.0,0.0,0.0,0.0,0.0,0.0,0.0,0.0,0.0,0.0,0.0,0.0,1.0,-1.9576997471222513,0.8716364500466994,-0.0010018209318133284,0.0003360461046531826,0.0038415070131636933,-0.08940950721951697,0.9959874848187836,1e-05,0.0,0.0,0.0,0.0,0.0,0.0,1e-05,0.0,0.0,0.0,0.0,0.0,0.0,1000000000000.0,0.0,0.0,0.0,0.0,0.0,0.0,1000000000000.0,0.0,0.0,0.0,0.0,0.0,0.0,1000000000000.0,0.0,0.0,0.0,0.0,0.0,0.0,0.001,0.22025354083612603,7.517829687664346e-07,0.0,0.0,0.0,-0.01923589085345626,0.0,0.0,0.0,0.0,0.0,0.0,0.0,0.0,0.0,0.0,0.0,0.0,0.0,0.0,0.0,0.0,0.0,0.0,0.0,0.0,0.0,0.0,0.0,0.0,0.0,0.0,0.0,0.0,0.0,0.0,0.0,0.0,0.0,0.0,0.0,0.0,0.2199999988079071,3.3562614589754958e-06,0.0,0.0,0.0,-0.011719155125319958
2346,167,234000000,167.234,base_footprint,0.00033703673231833355,0.003842250271580235,-0.08957956715015669,0.995972200750745,0.0,0.0,0.0,0.0,0.0,0.0,0.0,0.0,0.0,-0.0001127915164144711,-6.967099138765968e-05,-0.007234716958020279,0.0,0.0,0.0,0.0,0.0,0.0,0.0,0.0,0.0,-0.01657796788992074,0.002115085837768236,0.0013026023532614563,0.0,0.0,0.0,0.0,0.0,0.0,0.0,0.0,0.0,0.0,0.0,0.0,0.0,0.0,0.0,1.0,-1.950337850180589,0.8703029476065589,-0.0010019116386809843,0.00033708556904745417,0.003842236576654303,-0.08958312747888697,0.995971880558136,1e-05,0.0,0.0,0.0,0.0,0.0,0.0,1e-05,0.0,0.0,0.0,0.0,0.0,0.0,1000000000000.0,0.0,0.0,0.0,0.0,0.0,0.0,1000000000000.0,0.0,0.0,0.0,0.0,0.0,0.0,1000000000000.0,0.0,0.0,0.0,0.0,0.0,0.0,0.001,0.2197903086295085,8.673112913006042e-06,0.0,0.0,0.0,-0.007035452736885825,0.0,0.0,0.0,0.0,0.0,0.0,0.0,0.0,0.0,0.0,0.0,0.0,0.0,0.0,0.0,0.0,0.0,0.0,0.0,0.0,0.0,0.0,0.0,0.0,0.0,0.0,0.0,0.0,0.0,0.0,0.0,0.0,0.0,0.0,0.0,0.0,0.2199999988079071,0.0,0.0,0.0,0.0,-0.005215200129896403
2379,167,267000000,167.267,base_footprint,0.00033896919016340764,0.0038409932821810476,-0.0897075475135281,0.9959606858654626,0.0,0.0,0.0,0.0,0.0,0.0,0.0,0.0,0.0,-0.0003637166351301098,0.0007401140836989173,-0.013305209133085437,0.0,0.0,0.0,0.0,0.0,0.0,0.0,0.0,0.0,0.019286154786805648,-0.01115045324637822,-0.002313718932365302,0.0,0.0,0.0,0.0,0.0,0.0,0.0,0.0,0.0,0.0,0.0,0.0,0.0,0.0,0.0,1.0,-1.943199037093342,0.8690075347096575,-0.001001808777187075,0.00033880539038058487,0.0038413508092134396,-0.08971434516096667,0.9959600722454726,1e-05,0.0,0.0,0.0,0.0,0.0,0.0,1e-05,0.0,0.0,0.0,0.0,0.0,0.0,1000000000000.0,0.0,0.0,0.0,0.0,0.0,0.0,1000000000000.0,0.0,0.0,0.0,0.0,0.0,0.0,1000000000000.0,0.0,0.0,0.0,0.0,0.0,0.0,0.001,0.2203732353617209,-1.7274942949313532e-06,0.0,0.0,0.0,-0.013420334154473329,0.0,0.0,0.0,0.0,0.0,0.0,0.0,0.0,0.0,0.0,0.0,0.0,0.0,0.0,0.0,0.0,0.0,0.0,0.0,0.0,0.0,0.0,0.0,0.0,0.0,0.0,0.0,0.0,0.0,0.0,0.0,0.0,0.0,0.0,0.0,0.0,0.2199999988079071,0.0,0.0,0.0,0.0,-0.005215200129896403
2412,167,300000000,167.3,base_footprint,0.0003398499786100177,0.0038416209535332025,-0.08988173669067089,0.9959449783295815,0.0,0.0,0.0,0.0,0.0,0.0,0.0,0.0,0.0,-9.610960089294524e-05,-7.942402254364129e-06,-0.01001945130444871,0.0,0.0,0.0,0.0,0.0,0.0,0.0,0.0,0.0,-0.009946336426067823,0.001495406168588109,0.003022511087060829,0.0,0.0,0.0,0.0,0.0,0.0,0.0,0.0,0.0,0.0,0.0,0.0,0.0,0.0,0.0,1.0,-1.9360537452708428,0.8677083641208228,-0.0010018292723148713,0.00033988707838884146,0.0038416159611272555,-0.0898868232052656,0.9959445192768754,1e-05,0.0,0.0,0.0,0.0,0.0,0.0,1e-05,0.0,0.0,0.0,0.0,0.0,0.0,1000000000000.0,0.0,0.0,0.0,0.0,0.0,0.0,1000000000000.0,0.0,0.0,0.0,0.0,0.0,0.0,1000000000000.0,0.0,0.0,0.0,0.0,0.0,0.0,0.001,0.22003836560533688,1.228094415745007e-07,0.0,0.0,0.0,-0.009936993789618407,0.0,0.0,0.0,0.0,0.0,0.0,0.0,0.0,0.0,0.0,0.0,0.0,0.0,0.0,0.0,0.0,0.0,0.0,0.0,0.0,0.0,0.0,0.0,0.0,0.0,0.0,0.0,0.0,0.0,0.0,0.0,0.0,0.0,0.0,0.0,0.0,0.2199999988079071,0.0,0.0,0.0,0.0,-0.005215200129896403
2446,167,334000000,167.334,base_footprint,0.00034117366459960317,0.0038415106758998,-0.08995298162412646,0.995938546042469,0.0,0.0,0.0,0.0,0.0,0.0,0.0,0.0,0.0,8.379214131473541e-05,-5.060497419782902e-05,-0.004240446692329159,0.0,0.0,0.0,0.0,0.0,0.0,0.0,0.0,0.0,-0.003229456604584727,0.0001424300815119403,-0.0004988915430366504,0.0,0.0,0.0,0.0,0.0,0.0,0.0,0.0,0.0,0.0,0.0,0.0,0.0,0.0,0.0,1.0,-1.9286960957172528,0.8663687808849986,-0.0010018225523115952,0.0003412275821082893,0.0038415347548807596,-0.08995524451610225,0.9959383415445519,1e-05,0.0,0.0,0.0,0.0,0.0,0.0,1e-05,0.0,0.0,0.0,0.0,0.0,0.0,1000000000000.0,0.0,0.0,0.0,0.0,0.0,0.0,1000000000000.0,0.0,0.0,0.0,0.0,0.0,0.0,1000000000000.0,0.0,0.0,0.0,0.0,0.0,0.0,0.001,0.21993550494646413,-6.899399679211049e-07,0.0,0.0,0.0,-0.0043033644650678935,0.0,0.0,0.0,0.0,0.0,0.0,0.0,0.0,0.0,0.0,0.0,0.0,0.0,0.0,0.0,0.0,0.0,0.0,0.0,0.0,0.0,0.0,0.0,0.0,0.0,0.0,0.0,0.0,0.0,0.0,0.0,0.0,0.0,0.0,0.0,0.0,0.2199999988079071,2.0064981072209775e-05,0.0,0.0,0.0,0.010032796300947664
2479,167,367000000,167.367,base_footprint,0.00034258343663539997,0.003842187439673521,-0.09006957557991938,0.9959280053232366,0.0,0.0,0.0,0.0,0.0,0.0,0.0,0.0,0.0,-0.00021308454186933314,1.6199655438698052e-06,-0.013657971160926876,0.0,0.0,0.0,0.0,0.0,0.0,0.0,0.0,0.0,-0.05465832516777349,0.016514206468005187,-0.0013476542643812808,0.0,0.0,0.0,0.0,0.0,0.0,0.0,0.0,0.0,0.0,0.0,0.0,0.0,0.0,0.0,1.0,-1.921561605250425,0.8650692559073913,-0.0010018989775059522,0.00034258533602126606,0.003842239243175169,-0.09007690371205505,0.9959273423551213,1e-05,0.0,0.0,0.0,0.0,0.0,0.0,1e-05,0.0,0.0,0.0,0.0,0.0,0.0,1000000000000.0,0.0,0.0,0.0,0.0,0.0,0.0,1000000000000.0,0.0,0.0,0.0,0.0,0.0,0.0,1000000000000.0,0.0,0.0,0.0,0.0,0.0,0.0,0.001,0.21926698695265717,2.0064981838638363e-05,0.0,0.0,0.0,-0.01458258044742948,0.0,0.0,0.0,0.0,0.0,0.0,0.0,0.0,0.0,0.0,0.0,0.0,0.0,0.0,0.0,0.0,0.0,0.0,0.0,0.0,0.0,0.0,0.0,0.0,0.0,0.0,0.0,0.0,0.0,0.0,0.0,0.0,0.0,0.0,0.0,0.0,0.2199999988079071,2.0064981072209775e-05,0.0,0.0,0.0,0.010032796300947664
2512,167,400000000,167.4,base_footprint,0.0003384506534927094,0.0038355263068679097,-0.09048073523190249,0.9958907624538944,0.0,0.0,0.0,0.0,0.0,0.0,0.0,0.0,0.0,-0.00027347905749898385,-0.00030272144649387593,-0.026844405801925764,0.0,0.0,0.0,0.0,0.0,0.0,0.0,0.0,0.0,0.020224404057147146,-0.014675164804447608,-0.001994998293590245,0.0,0.0,0.0,0.0,0.0,0.0,0.0,0.0,0.0,0.0,0.0,0.0,0.0,0.0,0.0,1.0,-1.9144676895711514,0.8637731478042181,-0.001001105796284818,0.00033850510216364637,0.00383545754218527,-0.09049400775052259,0.9958895567486318,1e-05,0.0,0.0,0.0,0.0,0.0,0.0,1e-05,0.0,0.0,0.0,0.0,0.0,0.0,1000000000000.0,0.0,0.0,0.0,0.0,0.0,0.0,1000000000000.0,0.0,0.0,0.0,0.0,0.0,0.0,1000000000000.0,0.0,0.0,0.0,0.0,0.0,0.0,0.001,0.21844587638905835,1.7560586598609762e-05,0.0,0.0,0.0,-0.02650134573357679,0.0,0.0,0.0,0.0,0.0,0.0,0.0,0.0,0.0,0.0,0.0,0.0,0.0,0.0,0.0,0.0,0.0,0.0,0.0,0.0,0.0,0.0,0.0,0.0,0.0,0.0,0.0,0.0,0.0,0.0,0.0,0.0,0.0,0.0,0.0,0.0,0.2199999988079071,2.0064981072209775e-05,0.0,0.0,0.0,0.010032796300947664
2546,167,434000000,167.434,base_footprint,0.00034133100124129434,0.0038374198603308824,-0.09055743911004709,0.995883782337976,0.0,0.0,0.0,0.0,0.0,0.0,0.0,0.0,0.0,0.00136644206197281,0.0008614167071732422,0.010910952667672606,0.0,0.0,0.0,0.0,0.0,0.0,0.0,0.0,0.0,0.017280310826760036,-0.004287716693318225,-0.003798794921861271,0.0,0.0,0.0,0.0,0.0,0.0,0.0,0.0,0.0,0.0,0.0,0.0,0.0,0.0,0.0,1.0,-1.9071471576270906,0.8624306334706388,-0.0010014143082209548,0.00034166307074126254,0.0038380740454840457,-0.09055198942816803,0.9958842752371224,1e-05,0.0,0.0,0.0,0.0,0.0,0.0,1e-05,0.0,0.0,0.0,0.0,0.0,0.0,1000000000000.0,0.0,0.0,0.0,0.0,0.0,0.0,1000000000000.0,0.0,0.0,0.0,0.0,0.0,0.0,1000000000000.0,0.0,0.0,0.0,0.0,0.0,0.0,0.001,0.2199364239604348,-4.446093464977041e-06,0.0,0.0,0.0,0.01088298113974144,0.0,0.0,0.0,0.0,0.0,0.0,0.0,0.0,0.0,0.0,0.0,0.0,0.0,0.0,0.0,0.0,0.0,0.0,0.0,0.0,0.0,0.0,0.0,0.0,0.0,0.0,0.0,0.0,0.0,0.0,0.0,0.0,0.0,0.0,0.0,0.0,0.2199999988079071,0.0,0.0,0.0,0.0,-0.015334897674620152
2579,167,467000000,167.467,base_footprint,0.00034116970785461737,0.003838275666259496,-0.09040073834359737,0.9958980157375918,0.0,0.0,0.0,0.0,0.0,0.0,0.0,0.0,0.0,0.00013286838577427997,-0.00018945972998056412,0.009273756680701411,0.0,0.0,0.0,0.0,0.0,0.0,0.0,0.0,0.0,0.002665001971507561,0.0011949966987274269,-0.0008751399165799892,0.0,0.0,0.0,0.0,0.0,0.0,0.0,0.0,0.0,0.0,0.0,0.0,0.0,0.0,0.0,1.0,-1.9000107582115504,0.8611231250058278,-0.001001434173060152,0.0003411423661435752,0.003838274656472212,-0.09039606459800394,0.9958984399901132,1e-05,0.0,0.0,0.0,0.0,0.0,0.0,1e-05,0.0,0.0,0.0,0.0,0.0,0.0,1000000000000.0,0.0,0.0,0.0,0.0,0.0,0.0,1000000000000.0,0.0,0.0,0.0,0.0,0.0,0.0,1000000000000.0,0.0,0.0,0.0,0.0,0.0,0.0,0.001,0.21986025632485243,-2.7364122385659106e-06,0.0,0.0,0.0,0.009280497471630353,0.0,0.0,0.0,0.0,0.0,0.0,0.0,0.0,0.0,0.0,0.0,0.0,0.0,0.0,0.0,0.0,0.0,0.0,0.0,0.0,0.0,0.0,0.0,0.0,0.0,0.0,0.0,0.0,0.0,0.0,0.0,0.0,0.0,0.0,0.0,0.0,0.2199999988079071,0.0,0.0,0.0,0.0,-0.015334897674620152
2612,167,500000000,167.5,base_footprint,0.0003403006025799597,0.003838251824633436,-0.09024732891324179,0.9959119296616824,0.0,0.0,0.0,0.0,0.0,0.0,0.0,0.0,0.0,0.00012011489445791868,-0.00018024542526960365,0.00915304940531205,0.0,0.0,0.0,0.0,0.0,0.0,0.0,0.0,0.0,0.001963712842051302,0.001422297268686972,-3.618771280666131e-05,0.0,0.0,0.0,0.0,0.0,0.0,0.0,0.0,0.0,0.0,0.0,0.0,0.0,0.0,0.0,1.0,-1.8928729766433978,0.8598176508068267,-0.0010014245613618016,0.00034027446438447895,0.0038382546960705898,-0.09024270610163533,0.9959123485576584,1e-05,0.0,0.0,0.0,0.0,0.0,0.0,1e-05,0.0,0.0,0.0,0.0,0.0,0.0,1000000000000.0,0.0,0.0,0.0,0.0,0.0,0.0,1000000000000.0,0.0,0.0,0.0,0.0,0.0,0.0,1000000000000.0,0.0,0.0,0.0,0.0,0.0,0.0,0.001,0.219902502516131,-3.5824916338189627e-06,0.0,0.0,0.0,0.009150476551820684,0.0,0.0,0.0,0.0,0.0,0.0,0.0,0.0,0.0,0.0,0.0,0.0,0.0,0.0,0.0,0.0,0.0,0.0,0.0,0.0,0.0,0.0,0.0,0.0,0.0,0.0,0.0,0.0,0.0,0.0,0.0,0.0,0.0,0.0,0.0,0.0,0.2199999988079071,0.0,0.0,0.0,0.0,-0.015334897674620152
2646,167,534000000,167.534,base_footprint,0.0003409873166974945,0.003838425486809677,-0.09050330501118621,0.9958886996042702,0.0,0.0,0.0,0.0,0.0,0.0,0.0,0.0,0.0,-0.00010100879798452247,-0.00013643932486118317,-0.016321710608662925,0.0,0.0,0.0,0.0,0.0,0.0,0.0,0.0,0.0,-4.756823447519523e-05,-0.003990463884388783,0.0005767547039088923,0.0,0.0,0.0,0.0,0.0,0.0,0.0,0.0,0.0,0.0,0.0,0.0,0.0,0.0,0.0,1.0,-1.8855104038550663,0.8584704536851443,-0.0010014609623934141,0.00034100935107580826,0.0038384292549110354,-0.09051136253770543,0.995887967306085,1e-05,0.0,0.0,0.0,0.0,0.0,0.0,1e-05,0.0,0.0,0.0,0.0,0.0,0.0,1000000000000.0,0.0,0.0,0.0,0.0,0.0,0.0,1000000000000.0,0.0,0.0,0.0,0.0,0.0,0.0,1000000000000.0,0.0,0.0,0.0,0.0,0.0,0.0,0.001,0.2201773635109533,4.821762552585651e-06,0.0,0.0,0.0,-0.016327792783983615,0.0,0.0,0.0,0.0,0.0,0.0,0.0,0.0,0.0,0.0,0.0,0.0,0.0,0.0,0.0,0.0,0.0,0.0,0.0,0.0,0.0,0.0,0.0,0.0,0.0,0.0,0.0,0.0,0.0,0.0,0.0,0.0,0.0,0.0,0.0,0.0,0.20685361325740814,4.209288363199448e-06,0.0,0.0,0.0,-0.024629591032862663
2679,167,567000000,167.567,base_footprint,0.000341706157184638,0.003838725932744359,-0.0907699324948218,0.9958644319258525,0.0,0.0,0.0,0.0,0.0,0.0,0.0,0.0,0.0,-0.0002253645521352074,-7.905845637080629e-05,-0.016420394557587613,0.0,0.0,0.0,0.0,0.0,0.0,0.0,0.0,0.0,-5.390234331993432e-05,-0.0038189589626476373,-1.3924897899293999e-05,0.0,0.0,0.0,0.0,0.0,0.0,0.0,0.0,0.0,0.0,0.0,0.0,0.0,0.0,0.0,1.0,-1.8783634738952006,0.8571586875139076,-0.0010015168709013623,0.0003417293930490205,0.0038387373739230133,-0.09077803935288756,0.9958636929257144,1e-05,0.0,0.0,0.0,0.0,0.0,0.0,1e-05,0.0,0.0,0.0,0.0,0.0,0.0,1000000000000.0,0.0,0.0,0.0,0.0,0.0,0.0,1000000000000.0,0.0,0.0,0.0,0.0,0.0,0.0,1000000000000.0,0.0,0.0,0.0,0.0,0.0,0.0,0.001,0.22021876463617054,4.209288178402826e-06,0.0,0.0,0.0,-0.016424450569425493,0.0,0.0,0.0,0.0,0.0,0.0,0.0,0.0,0.0,0.0,0.0,0.0,0.0,0.0,0.0,0.0,0.0,0.0,0.0,0.0,0.0,0.0,0.0,0.0,0.0,0.0,0.0,0.0,0.0,0.0,0.0,0.0,0.0,0.0,0.0,0.0,0.20685361325740814,4.209288363199448e-06,0.0,0.0,0.0,-0.024629591032862663
2712,167,600000000,167.6,base_footprint,0.0003424411323282984,0.003839317502732597,-0.09103812653401602,0.995839947929566,0.0,0.0,0.0,0.0,0.0,0.0,0.0,0.0,0.0,-0.000256267843089294,-5.17454305112743e-05,-0.016472920037211267,0.0,0.0,0.0,0.0,0.0,0.0,0.0,0.0,0.0,-0.0006034094441342522,-0.0036697931762149816,-8.139098163904931e-05,0.0,0.0,0.0,0.0,0.0,0.0,0.0,0.0,0.0,0.0,0.0,0.0,0.0,0.0,0.0,1.0,-1.8712159977473055,0.8558428439225714,-0.0010016111752733682,0.0003424621351818,0.003839341359209201,-0.09104626237121746,0.9958392040313763,1e-05,0.0,0.0,0.0,0.0,0.0,0.0,1e-05,0.0,0.0,0.0,0.0,0.0,0.0,1000000000000.0,0.0,0.0,0.0,0.0,0.0,0.0,1000000000000.0,0.0,0.0,0.0,0.0,0.0,0.0,1000000000000.0,0.0,0.0,0.0,0.0,0.0,0.0,0.001,0.2202577872439913,3.83200784204174e-06,0.0,0.0,0.0,-0.01647166943481491,0.0,0.0,0.0,0.0,0.0,0.0,0.0,0.0,0.0,0.0,0.0,0.0,0.0,0.0,0.0,0.0,0.0,0.0,0.0,0.0,0.0,0.0,0.0,0.0,0.0,0.0,0.0,0.0,0.0,0.0,0.0,0.0,0.0,0.0,0.0,0.0,0.20685361325740814,4.209288363199448e-06,0.0,0.0,0.0,-0.024629591032862663
2746,167,634000000,167.634,base_footprint,0.00034496977321664597,0.0038402494979377093,-0.09175314114946888,0.9957743190948715,0.0,0.0,0.0,0.0,0.0,0.0,0.0,0.0,0.0,-0.00047951045471012816,0.00011339040772836207,-0.03313502632783666,0.0,0.0,0.0,0.0,0.0,0.0,0.0,0.0,0.0,0.020049959385278926,-0.014638631472539453,0.014352753180399892,0.0,0.0,0.0,0.0,0.0,0.0,0.0,0.0,0.0,0.0,0.0,0.0,0.0,0.0,0.0,1.0,-1.8641741006230472,0.8545393735424887,-0.0010017497270392306,0.0003450014364546287,0.003840227980210675,-0.09176969257553443,0.9957727939382864,1e-05,0.0,0.0,0.0,0.0,0.0,0.0,1e-05,0.0,0.0,0.0,0.0,0.0,0.0,1000000000000.0,0.0,0.0,0.0,0.0,0.0,0.0,1000000000000.0,0.0,0.0,0.0,0.0,0.0,0.0,1000000000000.0,0.0,0.0,0.0,0.0,0.0,0.0,0.001,0.20717427842220362,7.8972615904227e-06,0.0,0.0,0.0,-0.033342034801780156,0.0,0.0,0.0,0.0,0.0,0.0,0.0,0.0,0.0,0.0,0.0,0.0,0.0,0.0,0.0,0.0,0.0,0.0,0.0,0.0,0.0,0.0,0.0,0.0,0.0,0.0,0.0,0.0,0.0,0.0,0.0,0.0,0.0,0.0,0.0,0.0,0.2199999988079071,4.915644240099937e-06,0.0,0.0,0.0,0.016245801001787186
2779,167,667000000,167.667,base_footprint,0.000346536949424282,0.0038403352878023547,-0.09217064660605157,0.995735759949015,0.0,0.0,0.0,0.0,0.0,0.0,0.0,0.0,0.0,-0.0003326433280635462,3.2173995305816563e-06,-0.024807554837746118,0.0,0.0,0.0,0.0,0.0,0.0,0.0,0.0,0.0,-0.00399214033217221,-0.0039857023209035666,-0.0001942006585191381,0.0,0.0,0.0,0.0,0.0,0.0,0.0,0.0,0.0,0.0,0.0,0.0,0.0,0.0,0.0,1.0,-1.857453167174526,0.8532872080573866,-0.0010017958325792345,0.00034657679784493977,0.003840359176295065,-0.09218296633506619,0.9957346193859027,1e-05,0.0,0.0,0.0,0.0,0.0,0.0,1e-05,0.0,0.0,0.0,0.0,0.0,0.0,1000000000000.0,0.0,0.0,0.0,0.0,0.0,0.0,1000000000000.0,0.0,0.0,0.0,0.0,0.0,0.0,1000000000000.0,0.0,0.0,0.0,0.0,0.0,0.0,0.001,0.2071582135044078,4.915644228151161e-06,0.0,0.0,0.0,-0.02477983046941101,0.0,0.0,0.0,0.0,0.0,0.0,0.0,0.0,0.0,0.0,0.0,0.0,0.0,0.0,0.0,0.0,0.0,0.0,0.0,0.0,0.0,0.0,0.0,0.0,0.0,0.0,0.0,0.0,0.0,0.0,0.0,0.0,0.0,0.0,0.0,0.0,0.2199999988079071,4.915644240099937e-06,0.0,0.0,0.0,0.016245801001787186
2812,167,700000000,167.7,base_footprint,0.00034831047651292857,0.003841037636680827,-0.09257093341378073,0.9956986227752789,0.0,0.0,0.0,0.0,0.0,0.0,0.0,0.0,0.0,-0.00027924085708700645,3.261103948113958e-05,-0.023526187041077985,0.0,0.0,0.0,0.0,0.0,0.0,0.0,0.0,0.0,-0.009819954027459084,-0.002290143000076285,0.00010400104854488106,0.0,0.0,0.0,0.0,0.0,0.0,0.0,0.0,0.0,0.0,0.0,0.0,0.0,0.0,0.0,1.0,-1.8507349009706884,0.8520304225053235,-0.0010019017588591347,0.0003483624916765572,0.003841066583370306,-0.09258262958663024,0.9956975351731576,1e-05,0.0,0.0,0.0,0.0,0.0,0.0,1e-05,0.0,0.0,0.0,0.0,0.0,0.0,1000000000000.0,0.0,0.0,0.0,0.0,0.0,0.0,1000000000000.0,0.0,0.0,0.0,0.0,0.0,0.0,1000000000000.0,0.0,0.0,0.0,0.0,0.0,0.0,0.001,0.2070579674669448,2.8997024591116694e-05,0.0,0.0,0.0,-0.023419530710892356,0.0,0.0,0.0,0.0,0.0,0.0,0.0,0.0,0.0,0.0,0.0,0.0,0.0,0.0,0.0,0.0,0.0,0.0,0.0,0.0,0.0,0.0,0.0,0.0,0.0,0.0,0.0,0.0,0.0,0.0,0.0,0.0,0.0,0.0,0.0,0.0,0.2199999988079071,4.915644240099937e-06,0.0,0.0,0.0,0.016245801001787186
2846,167,734000000,167.734,base_footprint,0.0003498690716194526,0.003834313329308069,-0.09166404107765555,0.9957825461446085,0.0,0.0,0.0,0.0,0.0,0.0,0.0,0.0,0.0,0.0008614750427851369,-0.00014968112957911543,0.08812905688324377,0.0,0.0,0.0,0.0,0.0,0.0,0.0,0.0,0.0,0.07587898960338826,-0.005235437141875788,-0.001097596726006065,0.0,0.0,0.0,0.0,0.0,0.0,0.0,0.0,0.0,0.0,0.0,0.0,0.0,0.0,0.0,1.0,-1.8436766148903607,0.8507106270122873,-0.0010009701124997737,0.0003497381344197898,0.003834405008220988,-0.09162061170532658,0.9957865426547057,1e-05,0.0,0.0,0.0,0.0,0.0,0.0,1e-05,0.0,0.0,0.0,0.0,0.0,0.0,1000000000000.0,0.0,0.0,0.0,0.0,0.0,0.0,1000000000000.0,0.0,0.0,0.0,0.0,0.0,0.0,1000000000000.0,0.0,0.0,0.0,0.0,0.0,0.0,0.001,0.2136309246982388,-2.7783658442186165e-05,0.0,0.0,0.0,0.08732130089756193,0.0,0.0,0.0,0.0,0.0,0.0,0.0,0.0,0.0,0.0,0.0,0.0,0.0,0.0,0.0,0.0,0.0,0.0,0.0,0.0,0.0,0.0,0.0,0.0,0.0,0.0,0.0,0.0,0.0,0.0,0.0,0.0,0.0,0.0,0.0,0.0,0.2199999988079071,0.0,0.0,0.0,0.0,-0.05237889662384987
2879,167,767000000,167.767,base_footprint,0.00034629255560774693,0.003834746470256056,-0.09056832895227669,0.9958828006305597,0.0,0.0,0.0,0.0,0.0,0.0,0.0,0.0,0.0,0.0003393911892122696,-0.00020112997538957456,0.039977704208788684,0.0,0.0,0.0,0.0,0.0,0.0,0.0,0.0,0.0,0.1730341364153443,-0.05560477762303054,-0.0015234961708229773,0.0,0.0,0.0,0.0,0.0,0.0,0.0,0.0,0.0,0.0,0.0,0.0,0.0,0.0,0.0,1.0,-1.8366809242567361,0.8494208605827327,-0.0010010154333738586,0.0003462313832743362,0.0038347604350747193,-0.09054952519220243,0.9958845104848763,1e-05,0.0,0.0,0.0,0.0,0.0,0.0,1e-05,0.0,0.0,0.0,0.0,0.0,0.0,1000000000000.0,0.0,0.0,0.0,0.0,0.0,0.0,1000000000000.0,0.0,0.0,0.0,0.0,0.0,0.0,1000000000000.0,0.0,0.0,0.0,0.0,0.0,0.0,0.001,0.21798811069301577,-6.5885888128752734e-06,0.0,0.0,0.0,0.03787750623993318,0.0,0.0,0.0,0.0,0.0,0.0,0.0,0.0,0.0,0.0,0.0,0.0,0.0,0.0,0.0,0.0,0.0,0.0,0.0,0.0,0.0,0.0,0.0,0.0,0.0,0.0,0.0,0.0,0.0,0.0,0.0,0.0,0.0,0.0,0.0,0.0,0.2199999988079071,0.0,0.0,0.0,0.0,-0.05237889662384987
2912,167,800000000,167.8,base_footprint,0.00034220084736501016,0.0038412732529208736,-0.09023151084345195,0.9959133506331184,0.0,0.0,0.0,0.0,0.0,0.0,0.0,0.0,0.0,0.00018739801638841308,7.737808102625004e-05,0.01739698815844039,0.0,0.0,0.0,0.0,0.0,0.0,0.0,0.0,0.0,0.009545144771346171,-0.0021057005605579306,-0.00045442198455484503,0.0,0.0,0.0,0.0,0.0,0.0,0.0,0.0,0.0,0.0,0.0,0.0,0.0,0.0,0.0,1.0,-1.8295531685819504,0.848116666148084,-0.0010018149816702175,0.0003421626677796131,0.0038413598659818157,-0.09022297020202748,0.9959141240724588,1e-05,0.0,0.0,0.0,0.0,0.0,0.0,1e-05,0.0,0.0,0.0,0.0,0.0,0.0,1000000000000.0,0.0,0.0,0.0,0.0,0.0,0.0,1000000000000.0,0.0,0.0,0.0,0.0,0.0,0.0,1000000000000.0,0.0,0.0,0.0,0.0,0.0,0.0,0.001,0.2197775027359158,3.6792564480636614e-06,0.0,0.0,0.0,0.01742054213136137,0.0,0.0,0.0,0.0,0.0,0.0,0.0,0.0,0.0,0.0,0.0,0.0,0.0,0.0,0.0,0.0,0.0,0.0,0.0,0.0,0.0,0.0,0.0,0.0,0.0,0.0,0.0,0.0,0.0,0.0,0.0,0.0,0.0,0.0,0.0,0.0,0.2199999988079071,0.0,0.0,0.0,0.0,-0.05237889662384987
2946,167,834000000,167.834,base_footprint,0.0003460543083855363,0.0038418041410920403,-0.09097706413621294,0.9958455174315506,0.0,0.0,0.0,0.0,0.0,0.0,0.0,0.0,0.0,-0.0006113672546162597,-1.4864130475600287e-05,-0.05732497705625554,0.0,0.0,0.0,0.0,0.0,0.0,0.0,0.0,0.0,-0.024394783385080568,-0.005162134546927265,-0.0016630226619394838,0.0,0.0,0.0,0.0,0.0,0.0,0.0,0.0,0.0,0.0,0.0,0.0,0.0,0.0,0.0,1.0,-1.8221897120363484,0.8467677197233431,-0.0010019051318959048,0.00034615483051067504,0.0038418115017628887,-0.09100586570964733,0.9958428857343189,1e-05,0.0,0.0,0.0,0.0,0.0,0.0,1e-05,0.0,0.0,0.0,0.0,0.0,0.0,1000000000000.0,0.0,0.0,0.0,0.0,0.0,0.0,1000000000000.0,0.0,0.0,0.0,0.0,0.0,0.0,1000000000000.0,0.0,0.0,0.0,0.0,0.0,0.0,0.001,0.21997021980241013,4.447189125755119e-05,0.0,0.0,0.0,-0.05768046606662417,0.0,0.0,0.0,0.0,0.0,0.0,0.0,0.0,0.0,0.0,0.0,0.0,0.0,0.0,0.0,0.0,0.0,0.0,0.0,0.0,0.0,0.0,0.0,0.0,0.0,0.0,0.0,0.0,0.0,0.0,0.0,0.0,0.0,0.0,0.0,0.0,0.2199999988079071,4.3226613342994824e-05,0.0,0.0,0.0,-0.037810277193784714
2979,167,867000000,167.867,base_footprint,0.0003450315238879286,0.003835256162563544,-0.09211000736175623,0.995741391279499,0.0,0.0,0.0,0.0,0.0,0.0,0.0,0.0,0.0,-0.0006220375376292645,0.00010088080490775737,-0.07865883854714883,0.0,0.0,0.0,0.0,0.0,0.0,0.0,0.0,0.0,-0.01685848017576147,-0.012587728266374788,-0.008971406553381737,0.0,0.0,0.0,0.0,0.0,0.0,0.0,0.0,0.0,0.0,0.0,0.0,0.0,0.0,0.0,1.0,-1.8150786526332685,0.8454501317285292,-0.0010011498967932922,0.00034515297480128244,0.003835340056590189,-0.09214931780253095,0.9957377537607995,1e-05,0.0,0.0,0.0,0.0,0.0,0.0,1e-05,0.0,0.0,0.0,0.0,0.0,0.0,1000000000000.0,0.0,0.0,0.0,0.0,0.0,0.0,1000000000000.0,0.0,0.0,0.0,0.0,0.0,0.0,1000000000000.0,0.0,0.0,0.0,0.0,0.0,0.0,0.001,0.21850403425041057,4.3226611873406484e-05,0.0,0.0,0.0,-0.07883591679670035,0.0,0.0,0.0,0.0,0.0,0.0,0.0,0.0,0.0,0.0,0.0,0.0,0.0,0.0,0.0,0.0,0.0,0.0,0.0,0.0,0.0,0.0,0.0,0.0,0.0,0.0,0.0,0.0,0.0,0.0,0.0,0.0,0.0,0.0,0.0,0.0,0.2199999988079071,4.3226613342994824e-05,0.0,0.0,0.0,-0.037810277193784714
3012,167,900000000,167.9,base_footprint,0.0003494344951567208,0.0038342095598322586,-0.09331775551653418,0.9956289335078311,0.0,0.0,0.0,0.0,0.0,0.0,0.0,0.0,0.0,-0.0004805910429687215,-0.00012114435628271572,-0.06189741650617407,0.0,0.0,0.0,0.0,0.0,0.0,0.0,0.0,0.0,0.06743386809434782,-0.042125384751221545,-0.000735511021423325,0.0,0.0,0.0,0.0,0.0,0.0,0.0,0.0,0.0,0.0,0.0,0.0,0.0,0.0,0.0,1.0,-1.8079777355003772,0.8441161043484964,-0.00100108654698184,0.000349568645234854,0.0038341861169001027,-0.09334806716723425,0.9956260920519936,1e-05,0.0,0.0,0.0,0.0,0.0,0.0,1e-05,0.0,0.0,0.0,0.0,0.0,0.0,1000000000000.0,0.0,0.0,0.0,0.0,0.0,0.0,1000000000000.0,0.0,0.0,0.0,0.0,0.0,0.0,1000000000000.0,0.0,0.0,0.0,0.0,0.0,0.0,0.001,0.21981183568737167,2.065592344794448e-05,0.0,0.0,0.0,-0.06076298766083273,0.0,0.0,0.0,0.0,0.0,0.0,0.0,0.0,0.0,0.0,0.0,0.0,0.0,0.0,0.0,0.0,0.0,0.0,0.0,0.0,0.0,0.0,0.0,0.0,0.0,0.0,0.0,0.0,0.0,0.0,0.0,0.0,0.0,0.0,0.0,0.0,0.2199999988079071,4.3226613342994824e-05,0.0,0.0,0.0,-0.037810277193784714
3046,167,934000000,167.934,base_footprint,0.00035533195674524023,0.0038372931647524732,-0.09401278656812463,0.9955635313138306,0.0,0.0,0.0,0.0,0.0,0.0,0.0,0.0,0.0,-0.00014916596036427957,-1.3471216262260541e-05,-0.038454998113284886,0.0,0.0,0.0,0.0,0.0,0.0,0.0,0.0,0.0,0.00038773075917026775,-0.009328352031142491,-0.000502887411960933,0.0,0.0,0.0,0.0,0.0,0.0,0.0,0.0,0.0,0.0,0.0,0.0,0.0,0.0,0.0,1.0,-1.8006246617206476,0.8427198558355116,-0.0010014742272082752,0.0003554161700433353,0.003837336015123734,-0.09403188240354744,0.9955617276810608,1e-05,0.0,0.0,0.0,0.0,0.0,0.0,1e-05,0.0,0.0,0.0,0.0,0.0,0.0,1000000000000.0,0.0,0.0,0.0,0.0,0.0,0.0,1000000000000.0,0.0,0.0,0.0,0.0,0.0,0.0,1000000000000.0,0.0,0.0,0.0,0.0,0.0,0.0,0.001,0.22028699625846043,1.3944467177513797e-05,0.0,0.0,0.0,-0.0384489338742969,0.0,0.0,0.0,0.0,0.0,0.0,0.0,0.0,0.0,0.0,0.0,0.0,0.0,0.0,0.0,0.0,0.0,0.0,0.0,0.0,0.0,0.0,0.0,0.0,0.0,0.0,0.0,0.0,0.0,0.0,0.0,0.0,0.0,0.0,0.0,0.0,0.2199999988079071,1.5462708688573912e-05,0.0,0.0,0.0,-0.030469806864857674
3079,167,967000000,167.967,base_footprint,0.00035736037416042474,0.003836799268322625,-0.09464524220310178,0.995503605916751,0.0,0.0,0.0,0.0,0.0,0.0,0.0,0.0,0.0,-0.00024130532358073624,-0.00011775086741981232,-0.03867123836664518,0.0,0.0,0.0,0.0,0.0,0.0,0.0,0.0,0.0,-0.0018156203231708564,-0.008433887388399137,-4.380202197536899e-05,0.0,0.0,0.0,0.0,0.0,0.0,0.0,0.0,0.0,0.0,0.0,0.0,0.0,0.0,0.0,1.0,-1.793483994603985,0.8413544671453782,-0.0010014351310510435,0.0003574239684819116,0.00383679113879066,-0.0946644311417892,0.9955017813939186,1e-05,0.0,0.0,0.0,0.0,0.0,0.0,1e-05,0.0,0.0,0.0,0.0,0.0,0.0,1000000000000.0,0.0,0.0,0.0,0.0,0.0,0.0,1000000000000.0,0.0,0.0,0.0,0.0,0.0,0.0,1000000000000.0,0.0,0.0,0.0,0.0,0.0,0.0,0.001,0.2203223556933504,1.5462708886089527e-05,0.0,0.0,0.0,-0.03867492788773174,0.0,0.0,0.0,0.0,0.0,0.0,0.0,0.0,0.0,0.0,0.0,0.0,0.0,0.0,0.0,0.0,0.0,0.0,0.0,0.0,0.0,0.0,0.0,0.0,0.0,0.0,0.0,0.0,0.0,0.0,0.0,0.0,0.0,0.0,0.0,0.0,0.2199999988079071,1.5462708688573912e-05,0.0,0.0,0.0,-0.030469806864857674
3112,168,0,168.0,base_footprint,0.00035948347427488555,0.003836683201522988,-0.09527929224757198,0.9954431209780119,0.0,0.0,0.0,0.0,0.0,0.0,0.0,0.0,0.0,-0.000261476281425784,-0.00010384236160634227,-0.03880714186207986,0.0,0.0,0.0,0.0,0.0,0.0,0.0,0.0,0.0,-0.0019379371450266962,-0.008447164401886979,-3.467687266420059e-05,0.0,0.0,0.0,0.0,0.0,0.0,0.0,0.0,0.0,0.0,0.0,0.0,0.0,0.0,0.0,1.0,-1.786343816045235,0.8399797511945578,-0.001001453484650066,0.00035954808926974877,0.003836685451595545,-0.09529853280488897,0.9954412791396349,1e-05,0.0,0.0,0.0,0.0,0.0,0.0,1e-05,0.0,0.0,0.0,0.0,0.0,0.0,1000000000000.0,0.0,0.0,0.0,0.0,0.0,0.0,1000000000000.0,0.0,0.0,0.0,0.0,0.0,0.0,1000000000000.0,0.0,0.0,0.0,0.0,0.0,0.0,0.001,0.22036595098805206,1.396666159159815e-05,0.0,0.0,0.0,-0.038811657339908975,0.0,0.0,0.0,0.0,0.0,0.0,0.0,0.0,0.0,0.0,0.0,0.0,0.0,0.0,0.0,0.0,0.0,0.0,0.0,0.0,0.0,0.0,0.0,0.0,0.0,0.0,0.0,0.0,0.0,0.0,0.0,0.0,0.0,0.0,0.0,0.0,0.2199999988079071,1.5462708688573912e-05,0.0,0.0,0.0,-0.030469806864857674
3146,168,34000000,168.034,base_footprint,0.0003612062095643972,0.003836866117413402,-0.09581425258784518,0.9953917706056766,0.0,0.0,0.0,0.0,0.0,0.0,0.0,0.0,0.0,-0.00032927520203356264,-4.991297772755482e-05,-0.03157661231819192,0.0,0.0,0.0,0.0,0.0,0.0,0.0,0.0,0.0,-0.0012626349422002958,-0.006971679446783282,-0.0001044227461011634,0.0,0.0,0.0,0.0,0.0,0.0,0.0,0.0,0.0,0.0,0.0,0.0,0.0,0.0,0.0,1.0,-1.7789898018564037,0.8385548462505883,-0.0010015060171871051,0.0003612589175226893,0.0038368758337830764,-0.09582989520996833,0.9953902647001713,1e-05,0.0,0.0,0.0,0.0,0.0,0.0,1e-05,0.0,0.0,0.0,0.0,0.0,0.0,1000000000000.0,0.0,0.0,0.0,0.0,0.0,0.0,1000000000000.0,0.0,0.0,0.0,0.0,0.0,0.0,1000000000000.0,0.0,0.0,0.0,0.0,0.0,0.0,0.001,0.22034281790733848,9.732436832207703e-06,0.0,0.0,0.0,-0.031581269376472085,0.0,0.0,0.0,0.0,0.0,0.0,0.0,0.0,0.0,0.0,0.0,0.0,0.0,0.0,0.0,0.0,0.0,0.0,0.0,0.0,0.0,0.0,0.0,0.0,0.0,0.0,0.0,0.0,0.0,0.0,0.0,0.0,0.0,0.0,0.0,0.0,0.2199999988079071,9.611900168238208e-06,0.0,0.0,0.0,0.025766087695956234
3179,168,67000000,168.067,base_footprint,0.00036289623550406946,0.003837287486809705,-0.09633124239991274,0.9953418685400284,0.0,0.0,0.0,0.0,0.0,0.0,0.0,0.0,0.0,-0.00037145188851931077,-3.0202745857915814e-05,-0.031666569703342494,0.0,0.0,0.0,0.0,0.0,0.0,0.0,0.0,0.0,-0.0015205335472366593,-0.006886418303481373,-6.411733035683482e-05,0.0,0.0,0.0,0.0,0.0,0.0,0.0,0.0,0.0,0.0,0.0,0.0,0.0,0.0,0.0,1.0,-1.7718522892055262,0.8371640876854772,-0.0010015904260828774,0.0003629459294491594,0.0038373061448170338,-0.09634692937256929,0.9953403501075803,1e-05,0.0,0.0,0.0,0.0,0.0,0.0,1e-05,0.0,0.0,0.0,0.0,0.0,0.0,1000000000000.0,0.0,0.0,0.0,0.0,0.0,0.0,1000000000000.0,0.0,0.0,0.0,0.0,0.0,0.0,1000000000000.0,0.0,0.0,0.0,0.0,0.0,0.0,0.001,0.22038480641709726,9.61190032813114e-06,0.0,0.0,0.0,-0.031669811865297166,0.0,0.0,0.0,0.0,0.0,0.0,0.0,0.0,0.0,0.0,0.0,0.0,0.0,0.0,0.0,0.0,0.0,0.0,0.0,0.0,0.0,0.0,0.0,0.0,0.0,0.0,0.0,0.0,0.0,0.0,0.0,0.0,0.0,0.0,0.0,0.0,0.2199999988079071,9.611900168238208e-06,0.0,0.0,0.0,0.025766087695956234
3212,168,100000000,168.1,base_footprint,0.00036460425030000304,0.0038378635333257295,-0.09684716616217046,0.9952917985563817,0.0,0.0,0.0,0.0,0.0,0.0,0.0,0.0,0.0,-0.00038712684990477086,-2.792176455616881e-05,-0.0313717825089658,0.0,0.0,0.0,0.0,0.0,0.0,0.0,0.0,0.0,-0.002960512071733908,-0.006286664545104921,-6.693719479461186e-05,0.0,0.0,0.0,0.0,0.0,0.0,0.0,0.0,0.0,0.0,0.0,0.0,0.0,0.0,0.0,1.0,-1.764715577645632,0.8357657634697934,-0.001001691608211782,0.0003646586600830226,0.0038378782839278616,-0.09686271406152686,0.9952902854639818,1e-05,0.0,0.0,0.0,0.0,0.0,0.0,1e-05,0.0,0.0,0.0,0.0,0.0,0.0,1000000000000.0,0.0,0.0,0.0,0.0,0.0,0.0,1000000000000.0,0.0,0.0,0.0,0.0,0.0,0.0,1000000000000.0,0.0,0.0,0.0,0.0,0.0,0.0,0.001,0.2203862354684614,7.860982477854439e-06,0.0,0.0,0.0,-0.031360265648264475,0.0,0.0,0.0,0.0,0.0,0.0,0.0,0.0,0.0,0.0,0.0,0.0,0.0,0.0,0.0,0.0,0.0,0.0,0.0,0.0,0.0,0.0,0.0,0.0,0.0,0.0,0.0,0.0,0.0,0.0,0.0,0.0,0.0,0.0,0.0,0.0,0.2199999988079071,9.611900168238208e-06,0.0,0.0,0.0,0.025766087695956234
3246,168,134000000,168.134,base_footprint,0.00036346903947193863,0.0038381426927803623,-0.09652324281442765,0.9953232641446267,0.0,0.0,0.0,0.0,0.0,0.0,0.0,0.0,0.0,2.5901069927250125e-05,-2.8075401424296965e-05,0.024554786970467108,0.0,0.0,0.0,0.0,0.0,0.0,0.0,0.0,0.0,-0.0034231914994667535,0.007102841373518672,-0.0007678464158859738,0.0,0.0,0.0,0.0,0.0,0.0,0.0,0.0,0.0,0.0,0.0,0.0,0.0,0.0,0.0,1.0,-1.7573741104267016,0.8343249851548271,-0.0010017110986715178,0.0003633970978765504,0.0038381928608201814,-0.09651096778210054,0.9953244542941135,1e-05,0.0,0.0,0.0,0.0,0.0,0.0,1e-05,0.0,0.0,0.0,0.0,0.0,0.0,1000000000000.0,0.0,0.0,0.0,0.0,0.0,0.0,1000000000000.0,0.0,0.0,0.0,0.0,0.0,0.0,1000000000000.0,0.0,0.0,0.0,0.0,0.0,0.0,0.001,0.21993361801132466,-1.9559900229164373e-05,0.0,0.0,0.0,0.024615130227574635,0.0,0.0,0.0,0.0,0.0,0.0,0.0,0.0,0.0,0.0,0.0,0.0,0.0,0.0,0.0,0.0,0.0,0.0,0.0,0.0,0.0,0.0,0.0,0.0,0.0,0.0,0.0,0.0,0.0,0.0,0.0,0.0,0.0,0.0,0.0,0.0,0.2199999988079071,1.1381453077774495e-05,0.0,0.0,0.0,0.0
3279,168,167000000,168.167,base_footprint,0.0003619754615482799,0.003839472251001615,-0.096116898883324,0.9953625817638777,0.0,0.0,0.0,0.0,0.0,0.0,0.0,0.0,0.0,7.45083772380047e-05,-5.83731938068358e-06,0.02530846752660117,0.0,0.0,0.0,0.0,0.0,0.0,0.0,0.0,0.0,-0.005129708637125277,0.007315775878077471,-2.7903321726765346e-05,0.0,0.0,0.0,0.0,0.0,0.0,0.0,0.0,0.0,0.0,0.0,0.0,0.0,0.0,0.0,1.0,-1.750251321026375,0.8329339808086239,-0.001001865028930328,0.00036192522783343054,0.0038395244104245806,-0.09610428539200058,0.9953637995184094,1e-05,0.0,0.0,0.0,0.0,0.0,0.0,1e-05,0.0,0.0,0.0,0.0,0.0,0.0,1000000000000.0,0.0,0.0,0.0,0.0,0.0,0.0,1000000000000.0,0.0,0.0,0.0,0.0,0.0,0.0,1000000000000.0,0.0,0.0,0.0,0.0,0.0,0.0,0.001,0.21988491943195854,1.1381453461946356e-05,0.0,0.0,0.0,0.025407911238629507,0.0,0.0,0.0,0.0,0.0,0.0,0.0,0.0,0.0,0.0,0.0,0.0,0.0,0.0,0.0,0.0,0.0,0.0,0.0,0.0,0.0,0.0,0.0,0.0,0.0,0.0,0.0,0.0,0.0,0.0,0.0,0.0,0.0,0.0,0.0,0.0,0.2199999988079071,1.1381453077774495e-05,0.0,0.0,0.0,0.0
3312,168,200000000,168.2,base_footprint,0.0003619368251847984,0.0038381070425193863,-0.09565086161442558,0.9954074796828095,0.0,0.0,0.0,0.0,0.0,0.0,0.0,0.0,0.0,0.0002632702581090475,-0.0005071516869633927,0.030668466959978578,0.0,0.0,0.0,0.0,0.0,0.0,0.0,0.0,0.0,0.019696919347977997,-0.0007249897930085231,-0.0013460663054943225,0.0,0.0,0.0,0.0,0.0,0.0,0.0,0.0,0.0,0.0,0.0,0.0,0.0,0.0,0.0,1.0,-1.7431376577017217,0.8315506459101831,-0.0010016345390774888,0.0003619966279397083,0.003837942350623072,-0.09563582425890822,0.995408925153514,1e-05,0.0,0.0,0.0,0.0,0.0,0.0,1e-05,0.0,0.0,0.0,0.0,0.0,0.0,1000000000000.0,0.0,0.0,0.0,0.0,0.0,0.0,1000000000000.0,0.0,0.0,0.0,0.0,0.0,0.0,1000000000000.0,0.0,0.0,0.0,0.0,0.0,0.0,0.001,0.21945998670189482,-4.9428237793996965e-06,0.0,0.0,0.0,0.03039151430200609,0.0,0.0,0.0,0.0,0.0,0.0,0.0,0.0,0.0,0.0,0.0,0.0,0.0,0.0,0.0,0.0,0.0,0.0,0.0,0.0,0.0,0.0,0.0,0.0,0.0,0.0,0.0,0.0,0.0,0.0,0.0,0.0,0.0,0.0,0.0,0.0,0.2199999988079071,1.1381453077774495e-05,0.0,0.0,0.0,0.0
3346,168,234000000,168.234,base_footprint,0.00036123183462543956,0.0038399932255594816,-0.09557040186189447,0.9954152009345374,0.0,0.0,0.0,0.0,0.0,0.0,0.0,0.0,0.0,0.00010971565594939208,-0.0007976389199457988,0.0027762817794403645,0.0,0.0,0.0,0.0,0.0,0.0,0.0,0.0,0.0,-0.019115473779557288,0.008783026006988456,0.0025480031899168137,0.0,0.0,0.0,0.0,0.0,0.0,0.0,0.0,0.0,0.0,0.0,0.0,0.0,0.0,0.0,1.0,-1.7358018230279968,0.8301286902768943,-0.001001843827005848,0.0003614025729405137,0.0038396634126674216,-0.09556910925838247,0.9954153262476008,1e-05,0.0,0.0,0.0,0.0,0.0,0.0,1e-05,0.0,0.0,0.0,0.0,0.0,0.0,1000000000000.0,0.0,0.0,0.0,0.0,0.0,0.0,1000000000000.0,0.0,0.0,0.0,0.0,0.0,0.0,1000000000000.0,0.0,0.0,0.0,0.0,0.0,0.0,0.001,0.21985086962671493,-1.3213469248762877e-06,0.0,0.0,0.0,0.0028640223323544546,0.0,0.0,0.0,0.0,0.0,0.0,0.0,0.0,0.0,0.0,0.0,0.0,0.0,0.0,0.0,0.0,0.0,0.0,0.0,0.0,0.0,0.0,0.0,0.0,0.0,0.0,0.0,0.0,0.0,0.0,0.0,0.0,0.0,0.0,0.0,0.0,0.20683850347995758,0.0,0.0,0.0,0.0,-0.006714743562042712
3379,168,267000000,168.267,base_footprint,0.0003622067440825306,0.0038393417678384925,-0.09554612170765803,0.9954175339462781,0.0,0.0,0.0,0.0,0.0,0.0,0.0,0.0,0.0,4.6576608763009534e-05,-6.490516656870705e-05,0.0015081200598568486,0.0,0.0,0.0,0.0,0.0,0.0,0.0,0.0,0.0,-2.9884140826450918e-05,0.00034127137694392045,0.00017072238005536679,0.0,0.0,0.0,0.0,0.0,0.0,0.0,0.0,0.0,0.0,0.0,0.0,0.0,0.0,0.0,1.0,-1.728676563911737,0.8287478837952158,-0.001001799493416819,0.00036222683586537176,0.0038393508048391646,-0.09554551619039037,0.9954175920250902,1e-05,0.0,0.0,0.0,0.0,0.0,0.0,1e-05,0.0,0.0,0.0,0.0,0.0,0.0,1000000000000.0,0.0,0.0,0.0,0.0,0.0,0.0,1000000000000.0,0.0,0.0,0.0,0.0,0.0,0.0,1000000000000.0,0.0,0.0,0.0,0.0,0.0,0.0,0.001,0.21993146799741503,-1.5986987464897129e-06,0.0,0.0,0.0,0.0014903834759979718,0.0,0.0,0.0,0.0,0.0,0.0,0.0,0.0,0.0,0.0,0.0,0.0,0.0,0.0,0.0,0.0,0.0,0.0,0.0,0.0,0.0,0.0,0.0,0.0,0.0,0.0,0.0,0.0,0.0,0.0,0.0,0.0,0.0,0.0,0.0,0.0,0.20683850347995758,0.0,0.0,0.0,0.0,-0.006714743562042712
3412,168,300000000,168.3,base_footprint,0.00036334830912110446,0.003839735389801617,-0.095534463498632,0.9954186509676073,0.0,0.0,0.0,0.0,0.0,0.0,0.0,0.0,0.0,0.00014987076761711733,-2.9484711970383302e-05,-4.713544065792968e-05,0.0,0.0,0.0,0.0,0.0,0.0,0.0,0.0,0.0,-0.007208275867388155,0.0028993221899329697,-0.00030410846893205517,0.0,0.0,0.0,0.0,0.0,0.0,0.0,0.0,0.0,0.0,0.0,0.0,0.0,0.0,0.0,1.0,-1.721552038951065,0.8273678183211648,-0.0010018448929231746,0.0003633957844744876,0.0038397811504180483,-0.09553465495376291,0.9954186323989954,1e-05,0.0,0.0,0.0,0.0,0.0,0.0,1e-05,0.0,0.0,0.0,0.0,0.0,0.0,1000000000000.0,0.0,0.0,0.0,0.0,0.0,0.0,1000000000000.0,0.0,0.0,0.0,0.0,0.0,0.0,1000000000000.0,0.0,0.0,0.0,0.0,0.0,0.0,0.001,0.21985144975203788,2.238585360795492e-05,0.0,0.0,0.0,-0.00018975543881178593,0.0,0.0,0.0,0.0,0.0,0.0,0.0,0.0,0.0,0.0,0.0,0.0,0.0,0.0,0.0,0.0,0.0,0.0,0.0,0.0,0.0,0.0,0.0,0.0,0.0,0.0,0.0,0.0,0.0,0.0,0.0,0.0,0.0,0.0,0.0,0.0,0.20683850347995758,0.0,0.0,0.0,0.0,-0.006714743562042712
3446,168,334000000,168.334,base_footprint,0.00035854053810487866,0.0038402332057162936,-0.09402218534566639,0.9955626312394582,0.0,0.0,0.0,0.0,0.0,0.0,0.0,0.0,0.0,1.3292826113630405e-05,-0.0004890226232801364,0.1397641277099736,0.0,0.0,0.0,0.0,0.0,0.0,0.0,0.0,0.0,-0.0785352309627833,0.07294001107639952,-0.013594348401870907,0.0,0.0,0.0,0.0,0.0,0.0,0.0,0.0,0.0,0.0,0.0,0.0,0.0,0.0,0.0,1.0,-1.7144874813514377,0.8260065220711115,-0.001001825576928822,0.0003580531584988843,0.0038402075778446016,-0.09395343852549191,0.9955691216550118,1e-05,0.0,0.0,0.0,0.0,0.0,0.0,1e-05,0.0,0.0,0.0,0.0,0.0,0.0,1000000000000.0,0.0,0.0,0.0,0.0,0.0,0.0,1000000000000.0,0.0,0.0,0.0,0.0,0.0,0.0,1000000000000.0,0.0,0.0,0.0,0.0,0.0,0.0,0.001,0.20661316008128974,-4.14842064636739e-05,0.0,0.0,0.0,0.13825193834084068,0.0,0.0,0.0,0.0,0.0,0.0,0.0,0.0,0.0,0.0,0.0,0.0,0.0,0.0,0.0,0.0,0.0,0.0,0.0,0.0,0.0,0.0,0.0,0.0,0.0,0.0,0.0,0.0,0.0,0.0,0.0,0.0,0.0,0.0,0.0,0.0,0.2199999988079071,1.5450438013431267e-06,0.0,0.0,0.0,-0.0037995004095137124
3479,168,367000000,168.367,base_footprint,0.00035521411650105237,0.0038413619178809108,-0.09333123980768124,0.995627639952562,0.0,0.0,0.0,0.0,0.0,0.0,0.0,0.0,0.0,-0.0009026378312281034,-0.00017423076867199334,-0.010369681494393233,0.0,0.0,0.0,0.0,0.0,0.0,0.0,0.0,0.0,-0.13734946486413316,0.04951031019735673,0.028903214448375927,0.0,0.0,0.0,0.0,0.0,0.0,0.0,0.0,0.0,0.0,0.0,0.0,0.0,0.0,0.0,1.0,-1.7077333595262583,0.8247266559116964,-0.0010017635215238269,0.00035464135558949795,0.003840888748779675,-0.09333718633812788,0.9956270845299509,1e-05,0.0,0.0,0.0,0.0,0.0,0.0,1e-05,0.0,0.0,0.0,0.0,0.0,0.0,1000000000000.0,0.0,0.0,0.0,0.0,0.0,0.0,1000000000000.0,0.0,0.0,0.0,0.0,0.0,0.0,1000000000000.0,0.0,0.0,0.0,0.0,0.0,0.0,0.001,0.206563353421468,1.5450438042435843e-06,0.0,0.0,0.0,-0.012004632039772981,0.0,0.0,0.0,0.0,0.0,0.0,0.0,0.0,0.0,0.0,0.0,0.0,0.0,0.0,0.0,0.0,0.0,0.0,0.0,0.0,0.0,0.0,0.0,0.0,0.0,0.0,0.0,0.0,0.0,0.0,0.0,0.0,0.0,0.0,0.0,0.0,0.2199999988079071,1.5450438013431267e-06,0.0,0.0,0.0,-0.0037995004095137124
3512,168,400000000,168.4,base_footprint,0.00035334129023751384,0.0038369090337037706,-0.09347652583825472,0.9956140278221325,0.0,0.0,0.0,0.0,0.0,0.0,0.0,0.0,0.0,-6.020593899570251e-05,-0.00031066014834695433,-0.00772346641800556,0.0,0.0,0.0,0.0,0.0,0.0,0.0,0.0,0.0,0.006228188122184408,-0.004385444454520783,-0.004744705352102705,0.0,0.0,0.0,0.0,0.0,0.0,0.0,0.0,0.0,0.0,0.0,0.0,0.0,0.0,0.0,1.0,-1.7010309338132614,0.8234577697359884,-0.0010014003760164744,0.00035333995801823846,0.0038368654585730047,-0.09348028681292116,0.9956136748717854,1e-05,0.0,0.0,0.0,0.0,0.0,0.0,1e-05,0.0,0.0,0.0,0.0,0.0,0.0,1000000000000.0,0.0,0.0,0.0,0.0,0.0,0.0,1000000000000.0,0.0,0.0,0.0,0.0,0.0,0.0,1000000000000.0,0.0,0.0,0.0,0.0,0.0,0.0,0.001,0.2068050669228699,2.998081942540143e-06,0.0,0.0,0.0,-0.0076345776303271985,0.0,0.0,0.0,0.0,0.0,0.0,0.0,0.0,0.0,0.0,0.0,0.0,0.0,0.0,0.0,0.0,0.0,0.0,0.0,0.0,0.0,0.0,0.0,0.0,0.0,0.0,0.0,0.0,0.0,0.0,0.0,0.0,0.0,0.0,0.0,0.0,0.2199999988079071,1.5450438013431267e-06,0.0,0.0,0.0,-0.0037995004095137124
3546,168,434000000,168.434,base_footprint,0.000354124506889669,0.0038334679512130516,-0.09435286075820416,0.9955313740842344,0.0,0.0,0.0,0.0,0.0,0.0,0.0,0.0,0.0,-0.00023327584093294252,-7.188315126774634e-05,-0.03197333077124144,0.0,0.0,0.0,0.0,0.0,0.0,0.0,0.0,0.0,0.1906547407373946,-0.08474232083120574,0.0015478590991141036,0.0,0.0,0.0,0.0,0.0,0.0,0.0,0.0,0.0,0.0,0.0,0.0,0.0,0.0,0.0,1.0,-1.6938745119014893,0.8220961051129031,-0.0010010831914850499,0.00035418587669379137,0.003833465504881374,-0.09436733515115825,0.9955300021350723,1e-05,0.0,0.0,0.0,0.0,0.0,0.0,1e-05,0.0,0.0,0.0,0.0,0.0,0.0,1000000000000.0,0.0,0.0,0.0,0.0,0.0,0.0,1000000000000.0,0.0,0.0,0.0,0.0,0.0,0.0,1000000000000.0,0.0,0.0,0.0,0.0,0.0,0.0,0.001,0.21837199227641776,1.0078018747639028e-05,0.0,0.0,0.0,-0.029024155114295437,0.0,0.0,0.0,0.0,0.0,0.0,0.0,0.0,0.0,0.0,0.0,0.0,0.0,0.0,0.0,0.0,0.0,0.0,0.0,0.0,0.0,0.0,0.0,0.0,0.0,0.0,0.0,0.0,0.0,0.0,0.0,0.0,0.0,0.0,0.0,0.0,0.2199999988079071,1.0900796496571274e-06,0.0,0.0,0.0,0.0
3579,168,467000000,168.467,base_footprint,0.00035678854612196755,0.0038369476822094563,-0.09448090223156101,0.9955192161118377,0.0,0.0,0.0,0.0,0.0,0.0,0.0,0.0,0.0,-2.9467739040321315e-05,-0.00016902961142303062,-0.004829563029694476,0.0,0.0,0.0,0.0,0.0,0.0,0.0,0.0,0.0,7.354652634212496e-05,-0.0019172528391240386,0.00382527797633595,0.0,0.0,0.0,0.0,0.0,0.0,0.0,0.0,0.0,0.0,0.0,0.0,0.0,0.0,0.0,1.0,-1.6867489850479647,0.8207318736740173,-0.001001437500010683,0.0003567817885092192,0.0038369203236652315,-0.09448323923208335,0.9955189944212005,1e-05,0.0,0.0,0.0,0.0,0.0,0.0,1e-05,0.0,0.0,0.0,0.0,0.0,0.0,1000000000000.0,0.0,0.0,0.0,0.0,0.0,0.0,1000000000000.0,0.0,0.0,0.0,0.0,0.0,0.0,1000000000000.0,0.0,0.0,0.0,0.0,0.0,0.0,0.001,0.2200436439415054,1.090079618293327e-06,0.0,0.0,0.0,-0.004843895002463416,0.0,0.0,0.0,0.0,0.0,0.0,0.0,0.0,0.0,0.0,0.0,0.0,0.0,0.0,0.0,0.0,0.0,0.0,0.0,0.0,0.0,0.0,0.0,0.0,0.0,0.0,0.0,0.0,0.0,0.0,0.0,0.0,0.0,0.0,0.0,0.0,0.2199999988079071,1.0900796496571274e-06,0.0,0.0,0.0,0.0
3612,168,500000000,168.5,base_footprint,0.0003568033820945646,0.003837099319306337,-0.09455784795555765,0.9955119098987083,0.0,0.0,0.0,0.0,0.0,0.0,0.0,0.0,0.0,-0.00013670298088509664,-9.78030849173431e-05,-0.0048775035091046,0.0,0.0,0.0,0.0,0.0,0.0,0.0,0.0,0.0,0.0008351505703653312,-0.0015116523813735719,0.00010679509910858287,0.0,0.0,0.0,0.0,0.0,0.0,0.0,0.0,0.0,0.0,0.0,0.0,0.0,0.0,0.0,1.0,-1.6796166091305225,0.8193651924821471,-0.0010014733222063615,0.00035680430107566885,0.0038371087264675923,-0.09456020719148577,0.995511685769291,1e-05,0.0,0.0,0.0,0.0,0.0,0.0,1e-05,0.0,0.0,0.0,0.0,0.0,0.0,1000000000000.0,0.0,0.0,0.0,0.0,0.0,0.0,1000000000000.0,0.0,0.0,0.0,0.0,0.0,0.0,1000000000000.0,0.0,0.0,0.0,0.0,0.0,0.0,0.001,0.22008984462204578,3.9275766863799966e-07,0.0,0.0,0.0,-0.004883436875108577,0.0,0.0,0.0,0.0,0.0,0.0,0.0,0.0,0.0,0.0,0.0,0.0,0.0,0.0,0.0,0.0,0.0,0.0,0.0,0.0,0.0,0.0,0.0,0.0,0.0,0.0,0.0,0.0,0.0,0.0,0.0,0.0,0.0,0.0,0.0,0.0,0.2199999988079071,1.0900796496571274e-06,0.0,0.0,0.0,0.0
3646,168,534000000,168.534,base_footprint,0.00035656572796450745,0.003837588034904465,-0.09457688426923344,0.9955100997683952,0.0,0.0,0.0,0.0,0.0,0.0,0.0,0.0,0.0,-0.00013317885000614315,-8.288954609225066e-05,-0.001202568909986992,0.0,0.0,0.0,0.0,0.0,0.0,0.0,0.0,0.0,0.0010938736864412738,-0.0006784963088026228,-0.00013579761196388782,0.0,0.0,0.0,0.0,0.0,0.0,0.0,0.0,0.0,0.0,0.0,0.0,0.0,0.0,0.0,1.0,-1.6722680076907621,0.817956305786568,-0.0010015430941902742,0.0003565574269437916,0.0038376098088844326,-0.09457740962392502,0.9955100497767887,1e-05,0.0,0.0,0.0,0.0,0.0,0.0,1e-05,0.0,0.0,0.0,0.0,0.0,0.0,1000000000000.0,0.0,0.0,0.0,0.0,0.0,0.0,1000000000000.0,0.0,0.0,0.0,0.0,0.0,0.0,1000000000000.0,0.0,0.0,0.0,0.0,0.0,0.0,0.001,0.2201002150934526,-9.65670545825803e-07,0.0,0.0,0.0,-0.0012061230241605574,0.0,0.0,0.0,0.0,0.0,0.0,0.0,0.0,0.0,0.0,0.0,0.0,0.0,0.0,0.0,0.0,0.0,0.0,0.0,0.0,0.0,0.0,0.0,0.0,0.0,0.0,0.0,0.0,0.0,0.0,0.0,0.0,0.0,0.0,0.0,0.0,0.2199999988079071,0.0,0.0,0.0,0.0,0.007122051902115345
3679,168,567000000,168.567,base_footprint,0.0003562740557528767,0.00383838026570136,-0.09459415635881738,0.9955084557594159,0.0,0.0,0.0,0.0,0.0,0.0,0.0,0.0,0.0,-0.00015458958810400173,-7.500669711954051e-05,-0.0010925048967773802,0.0,0.0,0.0,0.0,0.0,0.0,0.0,0.0,0.0,-0.00017155581068608623,-0.00021244724040842762,-2.5566714112766078e-05,0.0,0.0,0.0,0.0,0.0,0.0,0.0,0.0,0.0,0.0,0.0,0.0,0.0,0.0,0.0,1.0,-1.6651345509061566,0.8165883965487616,-0.001001650270001514,0.0003562677216675694,0.003838402308400726,-0.094594629636568,0.9955084107052787,1e-05,0.0,0.0,0.0,0.0,0.0,0.0,1e-05,0.0,0.0,0.0,0.0,0.0,0.0,1000000000000.0,0.0,0.0,0.0,0.0,0.0,0.0,1000000000000.0,0.0,0.0,0.0,0.0,0.0,0.0,1000000000000.0,0.0,0.0,0.0,0.0,0.0,0.0,0.001,0.22011967024292323,-2.1421603046412052e-06,0.0,0.0,0.0,-0.0010830783086691054,0.0,0.0,0.0,0.0,0.0,0.0,0.0,0.0,0.0,0.0,0.0,0.0,0.0,0.0,0.0,0.0,0.0,0.0,0.0,0.0,0.0,0.0,0.0,0.0,0.0,0.0,0.0,0.0,0.0,0.0,0.0,0.0,0.0,0.0,0.0,0.0,0.2199999988079071,0.0,0.0,0.0,0.0,0.007122051902115345
3712,168,600000000,168.6,base_footprint,0.00035613477333418356,0.0038391031159441713,-0.09460677283679438,0.9955072541115386,0.0,0.0,0.0,0.0,0.0,0.0,0.0,0.0,0.0,-0.00017539099486030485,-6.207804382478516e-05,-0.0006352271423199559,0.0,0.0,0.0,0.0,0.0,0.0,0.0,0.0,0.0,-0.0008173783598882315,0.00015131349635478917,-0.0002522157695024453,0.0,0.0,0.0,0.0,0.0,0.0,0.0,0.0,0.0,0.0,0.0,0.0,0.0,0.0,0.0,1.0,-1.6580012770205321,0.8152202650227692,-0.0010017465178163258,0.00035613009326124304,0.0038391231427676344,-0.09460704124665034,0.9955072285279528,1e-05,0.0,0.0,0.0,0.0,0.0,0.0,1e-05,0.0,0.0,0.0,0.0,0.0,0.0,1000000000000.0,0.0,0.0,0.0,0.0,0.0,0.0,1000000000000.0,0.0,0.0,0.0,0.0,0.0,0.0,1000000000000.0,0.0,0.0,0.0,0.0,0.0,0.0,0.001,0.22010495149564502,-4.0531485139896906e-06,0.0,0.0,0.0,-0.000617847328445684,0.0,0.0,0.0,0.0,0.0,0.0,0.0,0.0,0.0,0.0,0.0,0.0,0.0,0.0,0.0,0.0,0.0,0.0,0.0,0.0,0.0,0.0,0.0,0.0,0.0,0.0,0.0,0.0,0.0,0.0,0.0,0.0,0.0,0.0,0.0,0.0,0.2199999988079071,0.0,0.0,0.0,0.0,0.007122051902115345
3746,168,634000000,168.634,base_footprint,0.0003556647485525584,0.003839674543527416,-0.09449778132052497,0.9955176039264624,0.0,0.0,0.0,0.0,0.0,0.0,0.0,0.0,0.0,-8.508903427537153e-05,-5.018897812112281e-05,0.006707650796201916,0.0,0.0,0.0,0.0,0.0,0.0,0.0,0.0,0.0,-0.0030119660698376344,0.0065663816808715966,-0.000838102521776185,0.0,0.0,0.0,0.0,0.0,0.0,0.0,0.0,0.0,0.0,0.0,0.0,0.0,0.0,0.0,1.0,-1.6506540696526875,0.8138117236504943,-0.0010018139962916853,0.0003556607360575229,0.003839696901492757,-0.0944944182865061,0.9955179230660994,1e-05,0.0,0.0,0.0,0.0,0.0,0.0,1e-05,0.0,0.0,0.0,0.0,0.0,0.0,1000000000000.0,0.0,0.0,0.0,0.0,0.0,0.0,1000000000000.0,0.0,0.0,0.0,0.0,0.0,0.0,1000000000000.0,0.0,0.0,0.0,0.0,0.0,0.0,0.001,0.22004244362513717,-2.015013493776585e-06,0.0,0.0,0.0,0.0067733051979271845,0.0,0.0,0.0,0.0,0.0,0.0,0.0,0.0,0.0,0.0,0.0,0.0,0.0,0.0,0.0,0.0,0.0,0.0,0.0,0.0,0.0,0.0,0.0,0.0,0.0,0.0,0.0,0.0,0.0,0.0,0.0,0.0,0.0,0.0,0.0,0.0,0.2199999988079071,0.0,0.0,0.0,0.0,0.020262835547327995
3779,168,667000000,168.667,base_footprint,0.00035578991765125676,0.0038401007497872674,-0.09435522298837304,0.9955311240411222,0.0,0.0,0.0,0.0,0.0,0.0,0.0,0.0,0.0,6.978746957700823e-05,-0.00029180635427021964,0.01185845322464283,0.0,0.0,0.0,0.0,0.0,0.0,0.0,0.0,0.0,-0.015763453987232938,0.011718033231455574,0.0014827747323392405,0.0,0.0,0.0,0.0,0.0,0.0,0.0,0.0,0.0,0.0,0.0,0.0,0.0,0.0,0.0,1.0,-1.643528174705791,0.8124478934776495,-0.0010018309219661584,0.0003558600688180869,0.003839995783321228,-0.09434928585202895,0.9955316871175962,1e-05,0.0,0.0,0.0,0.0,0.0,0.0,1e-05,0.0,0.0,0.0,0.0,0.0,0.0,1000000000000.0,0.0,0.0,0.0,0.0,0.0,0.0,1000000000000.0,0.0,0.0,0.0,0.0,0.0,0.0,1000000000000.0,0.0,0.0,0.0,0.0,0.0,0.0,0.001,0.21959763087657058,-5.344534250169286e-06,0.0,0.0,0.0,0.012057701180077348,0.0,0.0,0.0,0.0,0.0,0.0,0.0,0.0,0.0,0.0,0.0,0.0,0.0,0.0,0.0,0.0,0.0,0.0,0.0,0.0,0.0,0.0,0.0,0.0,0.0,0.0,0.0,0.0,0.0,0.0,0.0,0.0,0.0,0.0,0.0,0.0,0.2199999988079071,0.0,0.0,0.0,0.0,0.020262835547327995
3812,168,700000000,168.7,base_footprint,0.00035526524347855444,0.0038410200376150574,-0.09420485872620196,0.9955453605657826,0.0,0.0,0.0,0.0,0.0,0.0,0.0,0.0,0.0,7.3212258925644075e-06,-2.094667811694045e-05,0.008011174773405077,0.0,0.0,0.0,0.0,0.0,0.0,0.0,0.0,0.0,-0.03279548561322611,0.015156902361244073,0.006935765756339538,0.0,0.0,0.0,0.0,0.0,0.0,0.0,0.0,0.0,0.0,0.0,0.0,0.0,0.0,0.0,1.0,-1.6364017638724044,0.8110860367683098,-0.0010019368076154035,0.0003552858237280386,0.0038409882213443786,-0.0942007915615977,0.9955457455338932,1e-05,0.0,0.0,0.0,0.0,0.0,0.0,1e-05,0.0,0.0,0.0,0.0,0.0,0.0,1000000000000.0,0.0,0.0,0.0,0.0,0.0,0.0,1000000000000.0,0.0,0.0,0.0,0.0,0.0,0.0,1000000000000.0,0.0,0.0,0.0,0.0,0.0,0.0,0.001,0.21996488818402296,-8.979144620578638e-06,0.0,0.0,0.0,0.0084171883717297,0.0,0.0,0.0,0.0,0.0,0.0,0.0,0.0,0.0,0.0,0.0,0.0,0.0,0.0,0.0,0.0,0.0,0.0,0.0,0.0,0.0,0.0,0.0,0.0,0.0,0.0,0.0,0.0,0.0,0.0,0.0,0.0,0.0,0.0,0.0,0.0,0.2199999988079071,0.0,0.0,0.0,0.0,0.020262835547327995
3846,168,734000000,168.734,base_footprint,0.0003553983463880162,0.003840036560289431,-0.09384454288221211,0.9955793939121379,0.0,0.0,0.0,0.0,0.0,0.0,0.0,0.0,0.0,0.00020142121692830152,-0.0002852734680159152,0.022058616124927842,0.0,0.0,0.0,0.0,0.0,0.0,0.0,0.0,0.0,-0.0004030507698903009,0.005413485338622446,-0.0007064865336311563,0.0,0.0,0.0,0.0,0.0,0.0,0.0,0.0,0.0,0.0,0.0,0.0,0.0,0.0,0.0,1.0,-1.6290619214393192,0.8096869815184515,-0.0010018072268058974,0.00035541553870166166,0.0038399785926181832,-0.09383371731756039,0.9955804145012954,1e-05,0.0,0.0,0.0,0.0,0.0,0.0,1e-05,0.0,0.0,0.0,0.0,0.0,0.0,1000000000000.0,0.0,0.0,0.0,0.0,0.0,0.0,1000000000000.0,0.0,0.0,0.0,0.0,0.0,0.0,1000000000000.0,0.0,0.0,0.0,0.0,0.0,0.0,0.001,0.21973648464120857,-9.424058442682182e-06,0.0,0.0,0.0,0.022025875646749585,0.0,0.0,0.0,0.0,0.0,0.0,0.0,0.0,0.0,0.0,0.0,0.0,0.0,0.0,0.0,0.0,0.0,0.0,0.0,0.0,0.0,0.0,0.0,0.0,0.0,0.0,0.0,0.0,0.0,0.0,0.0,0.0,0.0,0.0,0.0,0.0,0.20682770013809204,7.056175945763243e-06,0.0,0.0,0.0,0.012944521382451057
